Folder: Taff_Bargoed_microplastics_data/RAMAN_data/06022023_r2 (part 2)

File: black fibre3.CSV
9.931763e+01,0.000000e+00
1.108884e+02,0.000000e+00
1.224592e+02,0.000000e+00
1.340300e+02,0.000000e+00
1.456008e+02,0.000000e+00
1.571716e+02,0.000000e+00
1.687424e+02,0.000000e+00
1.803132e+02,0.000000e+00
1.918840e+02,0.000000e+00
2.034548e+02,2.872941e+03
2.150256e+02,2.874555e+03
2.265964e+02,2.903710e+03
2.381673e+02,2.923238e+03
2.497381e+02,2.927409e+03
2.613088e+02,2.942935e+03
2.728796e+02,2.947629e+03
2.844504e+02,2.969290e+03
2.960212e+02,2.976238e+03
3.075920e+02,2.984936e+03
3.191628e+02,3.002677e+03
3.307336e+02,3.003634e+03
3.423044e+02,3.023929e+03
3.538752e+02,3.008494e+03
3.654461e+02,3.016258e+03
3.770169e+02,3.039415e+03
3.885877e+02,3.019622e+03
4.001585e+02,3.027094e+03
4.117293e+02,3.015457e+03
4.233001e+02,3.026810e+03
4.348709e+02,3.033465e+03
4.464417e+02,3.013310e+03
4.580125e+02,3.035431e+03
4.695833e+02,3.025240e+03
4.811541e+02,3.047061e+03
4.927249e+02,3.080135e+03
5.042957e+02,3.013770e+03
5.158665e+02,3.037074e+03
5.274373e+02,3.008095e+03
5.390081e+02,3.008588e+03
5.505789e+02,2.982278e+03
5.621497e+02,2.995819e+03
5.737205e+02,2.986285e+03
5.852913e+02,2.977503e+03
5.968621e+02,2.983246e+03
6.084329e+02,2.967777e+03
6.200037e+02,2.954643e+03
6.315745e+02,2.950823e+03
6.431453e+02,2.936045e+03
6.547161e+02,2.945840e+03
6.662869e+02,2.909399e+03
6.778577e+02,2.910225e+03
6.894285e+02,2.862864e+03
7.009993e+02,2.890289e+03
7.125701e+02,2.865909e+03
7.241409e+02,2.859174e+03
7.357117e+02,2.834752e+03
7.472825e+02,2.837066e+03
7.588533e+02,2.816622e+03
7.704241e+02,2.796544e+03
7.819949e+02,2.788929e+03
7.935657e+02,2.796254e+03
8.051365e+02,2.759150e+03
8.167073e+02,2.744740e+03
8.282781e+02,2.734257e+03
8.398489e+02,2.733581e+03
8.514197e+02,2.717572e+03
8.629905e+02,2.708241e+03
8.745613e+02,2.704786e+03
8.861321e+02,2.671768e+03
8.977029e+02,2.661800e+03
9.092737e+02,2.648806e+03
9.208445e+02,2.628145e+03
9.324153e+02,2.613124e+03
9.439861e+02,2.581396e+03
9.555569e+02,2.556139e+03
9.671277e+02,2.550339e+03
9.786985e+02,2.548065e+03
9.902693e+02,2.515573e+03
1.001840e+03,2.500414e+03
1.013411e+03,2.500564e+03
1.024982e+03,2.476582e+03
1.036552e+03,2.483740e+03
1.048123e+03,2.455773e+03
1.059694e+03,2.455569e+03
1.071265e+03,2.452237e+03
1.082836e+03,2.434851e+03
1.094406e+03,2.448375e+03
1.105977e+03,2.413067e+03
1.117548e+03,2.424323e+03
1.129119e+03,2.422730e+03
1.140690e+03,2.411185e+03
1.152261e+03,2.407520e+03
1.163831e+03,2.354122e+03
1.175402e+03,2.345429e+03
1.186973e+03,2.343506e+03
1.198544e+03,2.317264e+03
1.210115e+03,2.303201e+03
1.221685e+03,2.287835e+03
1.233256e+03,2.258245e+03
1.244827e+03,2.240345e+03
1.256398e+03,2.232017e+03
1.267969e+03,2.236444e+03
1.279539e+03,2.261363e+03
1.291110e+03,2.239392e+03
1.302681e+03,2.193673e+03
1.314252e+03,2.183523e+03
1.325823e+03,2.174130e+03
1.337393e+03,2.199173e+03
1.348964e+03,2.155424e+03
1.360535e+03,2.149898e+03
1.372106e+03,2.131009e+03
1.383677e+03,2.118426e+03
1.395247e+03,2.066109e+03
1.406818e+03,2.075020e+03
1.418389e+03,2.061751e+03
1.429960e+03,2.050275e+03
1.441531e+03,2.021332e+03
1.453101e+03,2.001627e+03
1.464672e+03,1.993003e+03
1.476243e+03,1.983198e+03
1.487814e+03,1.973641e+03
1.499385e+03,1.961312e+03
1.510955e+03,1.942350e+03
1.522526e+03,1.923862e+03
1.534097e+03,1.908888e+03
1.545668e+03,1.893791e+03
1.557239e+03,1.894430e+03
1.568809e+03,1.908122e+03
1.580380e+03,1.895650e+03
1.591951e+03,1.881745e+03
1.603522e+03,1.843088e+03
1.615093e+03,1.834138e+03
1.626663e+03,1.811794e+03
1.638234e+03,1.787307e+03
1.649805e+03,1.775609e+03
1.661376e+03,1.757214e+03
1.672947e+03,1.740078e+03
1.684517e+03,1.723178e+03
1.696088e+03,1.722307e+03
1.707659e+03,1.691108e+03
1.719230e+03,1.703683e+03
1.730801e+03,1.676343e+03
1.742371e+03,1.661093e+03
1.753942e+03,1.655110e+03
1.765513e+03,1.651188e+03
1.777084e+03,1.627974e+03
1.788655e+03,1.607464e+03
1.800225e+03,1.595844e+03
1.811796e+03,1.573288e+03
1.823367e+03,1.572223e+03
1.834938e+03,1.558962e+03
1.846509e+03,1.543471e+03
1.858079e+03,1.514964e+03
1.869650e+03,1.516538e+03
1.881221e+03,1.491923e+03
1.892792e+03,1.482082e+03
1.904363e+03,1.470282e+03
1.915933e+03,1.451159e+03
1.927504e+03,1.449034e+03
1.939075e+03,1.433280e+03
1.950646e+03,1.421566e+03
1.962217e+03,1.394838e+03
1.973787e+03,1.379308e+03
1.985358e+03,1.373569e+03
1.996929e+03,1.357707e+03
2.008500e+03,1.333830e+03
2.020071e+03,1.330205e+03
2.031641e+03,1.317310e+03
2.043212e+03,1.280929e+03
2.054783e+03,1.271372e+03
2.066354e+03,1.255502e+03
2.077925e+03,1.254867e+03
2.089496e+03,1.236820e+03
2.101066e+03,1.225483e+03
2.112637e+03,1.205189e+03
2.124208e+03,1.203713e+03
2.135779e+03,1.172035e+03
2.147350e+03,1.158691e+03
2.158920e+03,1.145031e+03
2.170491e+03,1.145287e+03
2.182062e+03,1.135323e+03
2.193633e+03,1.131367e+03
2.205204e+03,1.110477e+03
2.216774e+03,1.096185e+03
2.228345e+03,1.066309e+03
2.239916e+03,1.048320e+03
2.251487e+03,1.039093e+03
2.263058e+03,1.042634e+03
2.274628e+03,1.010833e+03
2.286199e+03,1.006872e+03
2.297770e+03,1.014097e+03
2.309341e+03,9.879017e+02
2.320912e+03,9.765912e+02
2.332482e+03,9.688046e+02
2.344053e+03,9.746113e+02
2.355624e+03,9.442614e+02
2.367195e+03,9.225319e+02
2.378766e+03,9.333930e+02
2.390336e+03,9.187252e+02
2.401907e+03,9.083195e+02
2.413478e+03,8.950280e+02
2.425049e+03,8.825577e+02
2.436620e+03,8.693294e+02
2.448190e+03,8.650438e+02
2.459761e+03,8.556025e+02
2.471332e+03,8.430186e+02
2.482903e+03,8.318974e+02
2.494474e+03,8.313305e+02
2.506044e+03,8.192882e+02
2.517615e+03,8.120159e+02
2.529186e+03,7.815405e+02
2.540757e+03,8.030204e+02
2.552328e+03,8.014423e+02
2.563898e+03,7.766508e+02
2.575469e+03,7.744178e+02
2.587040e+03,7.567780e+02
2.598611e+03,7.505992e+02
2.610182e+03,7.426037e+02
2.621752e+03,7.271315e+02
2.633323e+03,7.333285e+02
2.644894e+03,7.193810e+02
2.656465e+03,7.166516e+02
2.668036e+03,7.099587e+02
2.679606e+03,6.979403e+02
2.691177e+03,6.822220e+02
2.702748e+03,6.906959e+02
2.714319e+03,6.807714e+02
2.725890e+03,6.685861e+02
2.737460e+03,6.655399e+02
2.749031e+03,6.563947e+02
2.760602e+03,6.631386e+02
2.772173e+03,6.508556e+02
2.783744e+03,6.579280e+02
2.795314e+03,6.332078e+02
2.806885e+03,6.330241e+02
2.818456e+03,6.062548e+02
2.830027e+03,6.269905e+02
2.841598e+03,6.330623e+02
2.853168e+03,6.373223e+02
2.864739e+03,6.375336e+02
2.876310e+03,6.426631e+02
2.887881e+03,6.254452e+02
2.899452e+03,6.289874e+02
2.911022e+03,6.170290e+02
2.922593e+03,6.133220e+02
2.934164e+03,5.985732e+02
2.945735e+03,5.899643e+02
2.957306e+03,6.015151e+02
2.968876e+03,5.790126e+02
2.980447e+03,5.431839e+02
2.992018e+03,5.624661e+02
3.003589e+03,5.423953e+02
3.015160e+03,5.388071e+02
3.026730e+03,5.324453e+02
3.038301e+03,5.482764e+02
3.049872e+03,5.420981e+02
3.061443e+03,5.336954e+02
3.073014e+03,5.370768e+02
3.084584e+03,5.216042e+02
3.096155e+03,5.396076e+02
3.107726e+03,5.327832e+02
3.119297e+03,5.101772e+02
3.130868e+03,5.458147e+02
3.142438e+03,5.017021e+02
3.154009e+03,5.628727e+02
3.165580e+03,5.143639e+02
3.177151e+03,5.152082e+02
3.188722e+03,4.957577e+02
3.200292e+03,5.313133e+02
3.211863e+03,0.000000e+00
3.223434e+03,0.000000e+00
3.235005e+03,0.000000e+00
3.246576e+03,0.000000e+00
3.258146e+03,0.000000e+00
3.269717e+03,0.000000e+00
3.281288e+03,0.000000e+00
3.292859e+03,0.000000e+00
3.304430e+03,0.000000e+00
3.316000e+03,0.000000e+00
3.327571e+03,0.000000e+00
3.339142e+03,0.000000e+00
3.350713e+03,0.000000e+00
3.362284e+03,0.000000e+00
3.373854e+03,0.000000e+00
3.385425e+03,0.000000e+00
3.396996e+03,0.000000e+00
3.408567e+03,0.000000e+00
3.420138e+03,0.000000e+00
3.431708e+03,0.000000e+00
3.443279e+03,0.000000e+00
3.454850e+03,0.000000e+00
3.466421e+03,0.000000e+00
3.477992e+03,0.000000e+00
3.489563e+03,0.000000e+00
3.500169e+03,0.000000e+00

File: black fibre4.CSV
9.931763e+01,0.000000e+00
1.108884e+02,0.000000e+00
1.224592e+02,0.000000e+00
1.340300e+02,0.000000e+00
1.456008e+02,0.000000e+00
1.571716e+02,0.000000e+00
1.687424e+02,0.000000e+00
1.803132e+02,0.000000e+00
1.918840e+02,0.000000e+00
2.034548e+02,1.366840e+03
2.150256e+02,1.381584e+03
2.265964e+02,1.369641e+03
2.381673e+02,1.376503e+03
2.497381e+02,1.367338e+03
2.613088e+02,1.365217e+03
2.728796e+02,1.377637e+03
2.844504e+02,1.378998e+03
2.960212e+02,1.370465e+03
3.075920e+02,1.378909e+03
3.191628e+02,1.370185e+03
3.307336e+02,1.378020e+03
3.423044e+02,1.376391e+03
3.538752e+02,1.372301e+03
3.654461e+02,1.363757e+03
3.770169e+02,1.404659e+03
3.885877e+02,1.362186e+03
4.001585e+02,1.343851e+03
4.117293e+02,1.343782e+03
4.233001e+02,1.343682e+03
4.348709e+02,1.369853e+03
4.464417e+02,1.339982e+03
4.580125e+02,1.340068e+03
4.695833e+02,1.313672e+03
4.811541e+02,1.319976e+03
4.927249e+02,1.316257e+03
5.042957e+02,1.317520e+03
5.158665e+02,1.325299e+03
5.274373e+02,1.315074e+03
5.390081e+02,1.288587e+03
5.505789e+02,1.281016e+03
5.621497e+02,1.281469e+03
5.737205e+02,1.263266e+03
5.852913e+02,1.265052e+03
5.968621e+02,1.260226e+03
6.084329e+02,1.251846e+03
6.200037e+02,1.234692e+03
6.315745e+02,1.234455e+03
6.431453e+02,1.226658e+03
6.547161e+02,1.219164e+03
6.662869e+02,1.215771e+03
6.778577e+02,1.213789e+03
6.894285e+02,1.190601e+03
7.009993e+02,1.198174e+03
7.125701e+02,1.194574e+03
7.241409e+02,1.181050e+03
7.357117e+02,1.176331e+03
7.472825e+02,1.180134e+03
7.588533e+02,1.164905e+03
7.704241e+02,1.138612e+03
7.819949e+02,1.148294e+03
7.935657e+02,1.132235e+03
8.051365e+02,1.124866e+03
8.167073e+02,1.123802e+03
8.282781e+02,1.109919e+03
8.398489e+02,1.111186e+03
8.514197e+02,1.093878e+03
8.629905e+02,1.095011e+03
8.745613e+02,1.093985e+03
8.861321e+02,1.091256e+03
8.977029e+02,1.075051e+03
9.092737e+02,1.071946e+03
9.208445e+02,1.055499e+03
9.324153e+02,1.041517e+03
9.439861e+02,1.047675e+03
9.555569e+02,1.037458e+03
9.671277e+02,1.037976e+03
9.786985e+02,1.027706e+03
9.902693e+02,1.022695e+03
1.001840e+03,1.014281e+03
1.013411e+03,1.016394e+03
1.024982e+03,1.003893e+03
1.036552e+03,1.007765e+03
1.048123e+03,9.988176e+02
1.059694e+03,1.001160e+03
1.071265e+03,9.969368e+02
1.082836e+03,9.972660e+02
1.094406e+03,1.032291e+03
1.105977e+03,9.987109e+02
1.117548e+03,1.007025e+03
1.129119e+03,9.820908e+02
1.140690e+03,9.699539e+02
1.152261e+03,9.770950e+02
1.163831e+03,9.551469e+02
1.175402e+03,9.444430e+02
1.186973e+03,9.279060e+02
1.198544e+03,9.359935e+02
1.210115e+03,9.222972e+02
1.221685e+03,9.249867e+02
1.233256e+03,9.220544e+02
1.244827e+03,9.147440e+02
1.256398e+03,9.105399e+02
1.267969e+03,8.971000e+02
1.279539e+03,9.082708e+02
1.291110e+03,9.242490e+02
1.302681e+03,9.051106e+02
1.314252e+03,9.085704e+02
1.325823e+03,9.087132e+02
1.337393e+03,9.034800e+02
1.348964e+03,8.936932e+02
1.360535e+03,8.844578e+02
1.372106e+03,8.881140e+02
1.383677e+03,8.843905e+02
1.395247e+03,8.690022e+02
1.406818e+03,8.606238e+02
1.418389e+03,8.606505e+02
1.429960e+03,8.502018e+02
1.441531e+03,8.432177e+02
1.453101e+03,8.481671e+02
1.464672e+03,8.465182e+02
1.476243e+03,8.532110e+02
1.487814e+03,8.296295e+02
1.499385e+03,8.243430e+02
1.510955e+03,8.231732e+02
1.522526e+03,8.170441e+02
1.534097e+03,8.278102e+02
1.545668e+03,8.090706e+02
1.557239e+03,8.086318e+02
1.568809e+03,8.056533e+02
1.580380e+03,7.965398e+02
1.591951e+03,7.914766e+02
1.603522e+03,7.777280e+02
1.615093e+03,7.918561e+02
1.626663e+03,7.670372e+02
1.638234e+03,7.766492e+02
1.649805e+03,7.638769e+02
1.661376e+03,7.615656e+02
1.672947e+03,7.593946e+02
1.684517e+03,7.418665e+02
1.696088e+03,7.543527e+02
1.707659e+03,7.484055e+02
1.719230e+03,7.419055e+02
1.730801e+03,7.324103e+02
1.742371e+03,7.299080e+02
1.753942e+03,7.234477e+02
1.765513e+03,7.108588e+02
1.777084e+03,7.029753e+02
1.788655e+03,7.001317e+02
1.800225e+03,6.957970e+02
1.811796e+03,6.811250e+02
1.823367e+03,6.864891e+02
1.834938e+03,6.722102e+02
1.846509e+03,6.597112e+02
1.858079e+03,6.589821e+02
1.869650e+03,6.559834e+02
1.881221e+03,6.461304e+02
1.892792e+03,6.497551e+02
1.904363e+03,6.323033e+02
1.915933e+03,6.372511e+02
1.927504e+03,6.280719e+02
1.939075e+03,6.308392e+02
1.950646e+03,6.224277e+02
1.962217e+03,6.191658e+02
1.973787e+03,6.124304e+02
1.985358e+03,6.145994e+02
1.996929e+03,6.064747e+02
2.008500e+03,5.822667e+02
2.020071e+03,5.859561e+02
2.031641e+03,5.792287e+02
2.043212e+03,5.765713e+02
2.054783e+03,5.734620e+02
2.066354e+03,5.663218e+02
2.077925e+03,5.514529e+02
2.089496e+03,5.540304e+02
2.101066e+03,5.360269e+02
2.112637e+03,5.236956e+02
2.124208e+03,5.343239e+02
2.135779e+03,5.222267e+02
2.147350e+03,5.115252e+02
2.158920e+03,5.129780e+02
2.170491e+03,5.046427e+02
2.182062e+03,5.026388e+02
2.193633e+03,4.929439e+02
2.205204e+03,4.877810e+02
2.216774e+03,4.958924e+02
2.228345e+03,4.892935e+02
2.239916e+03,4.849584e+02
2.251487e+03,4.714053e+02
2.263058e+03,4.682749e+02
2.274628e+03,4.663993e+02
2.286199e+03,4.608124e+02
2.297770e+03,4.599624e+02
2.309341e+03,4.500075e+02
2.320912e+03,4.487074e+02
2.332482e+03,4.384350e+02
2.344053e+03,4.352313e+02
2.355624e+03,4.294856e+02
2.367195e+03,4.205120e+02
2.378766e+03,4.164650e+02
2.390336e+03,4.155998e+02
2.401907e+03,4.098302e+02
2.413478e+03,3.949093e+02
2.425049e+03,3.940941e+02
2.436620e+03,4.062585e+02
2.448190e+03,3.917175e+02
2.459761e+03,3.888618e+02
2.471332e+03,3.913376e+02
2.482903e+03,3.922977e+02
2.494474e+03,3.762298e+02
2.506044e+03,3.762424e+02
2.517615e+03,3.836968e+02
2.529186e+03,3.892238e+02
2.540757e+03,3.772128e+02
2.552328e+03,3.871965e+02
2.563898e+03,3.766824e+02
2.575469e+03,3.738128e+02
2.587040e+03,3.691850e+02
2.598611e+03,3.502358e+02
2.610182e+03,3.525859e+02
2.621752e+03,3.573231e+02
2.633323e+03,3.519033e+02
2.644894e+03,3.354112e+02
2.656465e+03,3.321286e+02
2.668036e+03,3.373511e+02
2.679606e+03,3.252246e+02
2.691177e+03,3.386727e+02
2.702748e+03,3.282622e+02
2.714319e+03,3.352831e+02
2.725890e+03,3.201984e+02
2.737460e+03,3.250461e+02
2.749031e+03,3.250234e+02
2.760602e+03,3.197391e+02
2.772173e+03,3.218058e+02
2.783744e+03,3.288033e+02
2.795314e+03,3.192183e+02
2.806885e+03,3.313506e+02
2.818456e+03,3.174537e+02
2.830027e+03,3.244266e+02
2.841598e+03,3.356291e+02
2.853168e+03,3.324210e+02
2.864739e+03,3.210930e+02
2.876310e+03,3.353798e+02
2.887881e+03,3.617838e+02
2.899452e+03,3.601851e+02
2.911022e+03,3.345944e+02
2.922593e+03,3.169143e+02
2.934164e+03,3.101493e+02
2.945735e+03,3.105275e+02
2.957306e+03,3.301817e+02
2.968876e+03,3.102970e+02
2.980447e+03,2.996952e+02
2.992018e+03,2.829491e+02
3.003589e+03,2.660337e+02
3.015160e+03,2.778727e+02
3.026730e+03,2.735679e+02
3.038301e+03,2.728022e+02
3.049872e+03,2.714576e+02
3.061443e+03,2.756509e+02
3.073014e+03,2.526582e+02
3.084584e+03,2.735755e+02
3.096155e+03,2.768586e+02
3.107726e+03,2.752972e+02
3.119297e+03,2.796454e+02
3.130868e+03,2.864263e+02
3.142438e+03,2.773188e+02
3.154009e+03,2.919598e+02
3.165580e+03,2.842255e+02
3.177151e+03,2.786243e+02
3.188722e+03,2.502651e+02
3.200292e+03,3.130280e+02
3.211863e+03,0.000000e+00
3.223434e+03,0.000000e+00
3.235005e+03,0.000000e+00
3.246576e+03,0.000000e+00
3.258146e+03,0.000000e+00
3.269717e+03,0.000000e+00
3.281288e+03,0.000000e+00
3.292859e+03,0.000000e+00
3.304430e+03,0.000000e+00
3.316000e+03,0.000000e+00
3.327571e+03,0.000000e+00
3.339142e+03,0.000000e+00
3.350713e+03,0.000000e+00
3.362284e+03,0.000000e+00
3.373854e+03,0.000000e+00
3.385425e+03,0.000000e+00
3.396996e+03,0.000000e+00
3.408567e+03,0.000000e+00
3.420138e+03,0.000000e+00
3.431708e+03,0.000000e+00
3.443279e+03,0.000000e+00
3.454850e+03,0.000000e+00
3.466421e+03,0.000000e+00
3.477992e+03,0.000000e+00
3.489563e+03,0.000000e+00
3.500169e+03,0.000000e+00

File: black fibre5.CSV
9.931763e+01,0.000000e+00
1.108884e+02,0.000000e+00
1.224592e+02,0.000000e+00
1.340300e+02,0.000000e+00
1.456008e+02,0.000000e+00
1.571716e+02,0.000000e+00
1.687424e+02,0.000000e+00
1.803132e+02,0.000000e+00
1.918840e+02,0.000000e+00
2.034548e+02,9.284197e+02
2.150256e+02,9.297040e+02
2.265964e+02,9.278652e+02
2.381673e+02,9.332307e+02
2.497381e+02,9.466109e+02
2.613088e+02,9.394163e+02
2.728796e+02,9.477659e+02
2.844504e+02,9.504505e+02
2.960212e+02,9.458503e+02
3.075920e+02,9.522548e+02
3.191628e+02,9.569890e+02
3.307336e+02,9.573520e+02
3.423044e+02,9.529498e+02
3.538752e+02,9.602377e+02
3.654461e+02,9.540057e+02
3.770169e+02,9.828489e+02
3.885877e+02,9.533711e+02
4.001585e+02,9.310402e+02
4.117293e+02,9.393839e+02
4.233001e+02,9.342070e+02
4.348709e+02,9.573463e+02
4.464417e+02,9.378398e+02
4.580125e+02,9.447966e+02
4.695833e+02,9.166847e+02
4.811541e+02,9.292211e+02
4.927249e+02,9.127697e+02
5.042957e+02,9.237733e+02
5.158665e+02,9.316576e+02
5.274373e+02,9.103758e+02
5.390081e+02,9.066557e+02
5.505789e+02,8.964182e+02
5.621497e+02,8.865441e+02
5.737205e+02,8.889716e+02
5.852913e+02,8.827140e+02
5.968621e+02,8.745975e+02
6.084329e+02,8.875295e+02
6.200037e+02,8.650471e+02
6.315745e+02,8.673458e+02
6.431453e+02,8.578336e+02
6.547161e+02,8.520419e+02
6.662869e+02,8.480690e+02
6.778577e+02,8.397060e+02
6.894285e+02,8.310869e+02
7.009993e+02,8.336141e+02
7.125701e+02,8.207800e+02
7.241409e+02,8.226967e+02
7.357117e+02,8.201974e+02
7.472825e+02,8.122064e+02
7.588533e+02,8.023995e+02
7.704241e+02,7.884898e+02
7.819949e+02,7.968759e+02
7.935657e+02,7.871563e+02
8.051365e+02,7.990624e+02
8.167073e+02,7.706821e+02
8.282781e+02,7.800604e+02
8.398489e+02,7.679070e+02
8.514197e+02,7.602974e+02
8.629905e+02,7.546279e+02
8.745613e+02,7.539202e+02
8.861321e+02,7.572700e+02
8.977029e+02,7.509525e+02
9.092737e+02,7.342006e+02
9.208445e+02,7.202695e+02
9.324153e+02,7.151198e+02
9.439861e+02,7.121621e+02
9.555569e+02,7.083757e+02
9.671277e+02,7.066090e+02
9.786985e+02,6.992744e+02
9.902693e+02,6.945936e+02
1.001840e+03,6.863957e+02
1.013411e+03,6.785978e+02
1.024982e+03,6.798047e+02
1.036552e+03,6.817620e+02
1.048123e+03,6.820134e+02
1.059694e+03,6.752351e+02
1.071265e+03,6.730343e+02
1.082836e+03,6.762382e+02
1.094406e+03,7.100585e+02
1.105977e+03,6.701337e+02
1.117548e+03,6.825627e+02
1.129119e+03,6.625295e+02
1.140690e+03,6.408471e+02
1.152261e+03,6.500452e+02
1.163831e+03,6.354474e+02
1.175402e+03,6.199886e+02
1.186973e+03,6.168517e+02
1.198544e+03,6.225573e+02
1.210115e+03,6.078134e+02
1.221685e+03,6.090190e+02
1.233256e+03,6.063058e+02
1.244827e+03,6.052748e+02
1.256398e+03,6.070040e+02
1.267969e+03,5.939574e+02
1.279539e+03,5.971521e+02
1.291110e+03,5.953213e+02
1.302681e+03,5.915361e+02
1.314252e+03,5.936705e+02
1.325823e+03,5.924943e+02
1.337393e+03,5.972490e+02
1.348964e+03,5.822953e+02
1.360535e+03,5.835141e+02
1.372106e+03,5.958463e+02
1.383677e+03,5.876479e+02
1.395247e+03,5.714041e+02
1.406818e+03,5.699666e+02
1.418389e+03,5.560022e+02
1.429960e+03,5.572377e+02
1.441531e+03,5.478890e+02
1.453101e+03,5.535823e+02
1.464672e+03,5.485751e+02
1.476243e+03,5.408632e+02
1.487814e+03,5.311720e+02
1.499385e+03,5.290887e+02
1.510955e+03,5.236938e+02
1.522526e+03,5.165865e+02
1.534097e+03,5.135128e+02
1.545668e+03,5.091343e+02
1.557239e+03,5.039883e+02
1.568809e+03,5.130331e+02
1.580380e+03,5.067109e+02
1.591951e+03,5.014190e+02
1.603522e+03,4.969659e+02
1.615093e+03,4.921481e+02
1.626663e+03,4.890017e+02
1.638234e+03,4.869489e+02
1.649805e+03,4.733259e+02
1.661376e+03,4.768651e+02
1.672947e+03,4.747247e+02
1.684517e+03,4.656752e+02
1.696088e+03,4.603456e+02
1.707659e+03,4.562891e+02
1.719230e+03,4.599127e+02
1.730801e+03,4.515737e+02
1.742371e+03,4.512535e+02
1.753942e+03,4.429277e+02
1.765513e+03,4.349691e+02
1.777084e+03,4.365110e+02
1.788655e+03,4.290078e+02
1.800225e+03,4.320767e+02
1.811796e+03,4.216603e+02
1.823367e+03,4.214238e+02
1.834938e+03,4.083454e+02
1.846509e+03,4.075864e+02
1.858079e+03,4.074877e+02
1.869650e+03,4.078238e+02
1.881221e+03,4.047159e+02
1.892792e+03,3.932348e+02
1.904363e+03,3.863404e+02
1.915933e+03,3.863553e+02
1.927504e+03,3.793932e+02
1.939075e+03,3.866075e+02
1.950646e+03,3.711884e+02
1.962217e+03,3.720960e+02
1.973787e+03,3.714761e+02
1.985358e+03,3.664103e+02
1.996929e+03,3.614821e+02
2.008500e+03,3.474826e+02
2.020071e+03,3.531653e+02
2.031641e+03,3.433494e+02
2.043212e+03,3.432931e+02
2.054783e+03,3.358829e+02
2.066354e+03,3.388135e+02
2.077925e+03,3.255225e+02
2.089496e+03,3.245246e+02
2.101066e+03,3.286881e+02
2.112637e+03,3.148723e+02
2.124208e+03,3.179901e+02
2.135779e+03,3.170822e+02
2.147350e+03,2.926253e+02
2.158920e+03,2.959964e+02
2.170491e+03,3.007269e+02
2.182062e+03,2.873823e+02
2.193633e+03,2.958457e+02
2.205204e+03,2.924383e+02
2.216774e+03,2.823151e+02
2.228345e+03,2.774234e+02
2.239916e+03,2.740608e+02
2.251487e+03,2.742241e+02
2.263058e+03,2.679492e+02
2.274628e+03,2.653294e+02
2.286199e+03,2.601102e+02
2.297770e+03,2.584632e+02
2.309341e+03,2.549067e+02
2.320912e+03,2.507238e+02
2.332482e+03,2.488969e+02
2.344053e+03,2.455287e+02
2.355624e+03,2.474195e+02
2.367195e+03,2.418434e+02
2.378766e+03,2.439621e+02
2.390336e+03,2.339019e+02
2.401907e+03,2.401674e+02
2.413478e+03,2.211886e+02
2.425049e+03,2.211583e+02
2.436620e+03,2.252420e+02
2.448190e+03,2.172946e+02
2.459761e+03,2.143065e+02
2.471332e+03,2.125543e+02
2.482903e+03,2.194336e+02
2.494474e+03,2.084304e+02
2.506044e+03,2.176997e+02
2.517615e+03,2.117940e+02
2.529186e+03,2.034699e+02
2.540757e+03,2.054659e+02
2.552328e+03,2.063596e+02
2.563898e+03,2.159144e+02
2.575469e+03,2.064033e+02
2.587040e+03,2.038038e+02
2.598611e+03,1.995151e+02
2.610182e+03,1.933053e+02
2.621752e+03,1.989918e+02
2.633323e+03,1.897547e+02
2.644894e+03,1.906156e+02
2.656465e+03,1.919601e+02
2.668036e+03,1.876735e+02
2.679606e+03,1.731324e+02
2.691177e+03,1.883951e+02
2.702748e+03,1.890379e+02
2.714319e+03,1.788931e+02
2.725890e+03,1.791590e+02
2.737460e+03,1.667953e+02
2.749031e+03,1.775335e+02
2.760602e+03,1.728494e+02
2.772173e+03,1.793232e+02
2.783744e+03,1.799683e+02
2.795314e+03,1.692654e+02
2.806885e+03,1.637121e+02
2.818456e+03,1.711038e+02
2.830027e+03,1.727498e+02
2.841598e+03,1.830916e+02
2.853168e+03,1.856720e+02
2.864739e+03,1.972169e+02
2.876310e+03,1.900443e+02
2.887881e+03,2.213939e+02
2.899452e+03,2.203054e+02
2.911022e+03,2.068304e+02
2.922593e+03,1.745604e+02
2.934164e+03,1.620172e+02
2.945735e+03,1.956499e+02
2.957306e+03,2.163832e+02
2.968876e+03,1.692024e+02
2.980447e+03,1.607363e+02
2.992018e+03,1.459762e+02
3.003589e+03,1.601063e+02
3.015160e+03,1.550912e+02
3.026730e+03,1.468649e+02
3.038301e+03,1.473422e+02
3.049872e+03,1.392056e+02
3.061443e+03,1.451447e+02
3.073014e+03,1.285469e+02
3.084584e+03,1.414210e+02
3.096155e+03,1.415019e+02
3.107726e+03,1.435270e+02
3.119297e+03,1.523439e+02
3.130868e+03,1.716069e+02
3.142438e+03,1.634090e+02
3.154009e+03,1.705965e+02
3.165580e+03,1.663913e+02
3.177151e+03,1.452946e+02
3.188722e+03,1.126939e+02
3.200292e+03,1.548789e+02
3.211863e+03,0.000000e+00
3.223434e+03,0.000000e+00
3.235005e+03,0.000000e+00
3.246576e+03,0.000000e+00
3.258146e+03,0.000000e+00
3.269717e+03,0.000000e+00
3.281288e+03,0.000000e+00
3.292859e+03,0.000000e+00
3.304430e+03,0.000000e+00
3.316000e+03,0.000000e+00
3.327571e+03,0.000000e+00
3.339142e+03,0.000000e+00
3.350713e+03,0.000000e+00
3.362284e+03,0.000000e+00
3.373854e+03,0.000000e+00
3.385425e+03,0.000000e+00
3.396996e+03,0.000000e+00
3.408567e+03,0.000000e+00
3.420138e+03,0.000000e+00
3.431708e+03,0.000000e+00
3.443279e+03,0.000000e+00
3.454850e+03,0.000000e+00
3.466421e+03,0.000000e+00
3.477992e+03,0.000000e+00
3.489563e+03,0.000000e+00
3.500169e+03,0.000000e+00