Folder: Taff_Bargoed_microplastics_data/RAMAN_data/06022023_r2 (part 3)

File: black fibre6.CSV
9.931763e+01,0.000000e+00
1.108884e+02,0.000000e+00
1.224592e+02,0.000000e+00
1.340300e+02,0.000000e+00
1.456008e+02,0.000000e+00
1.571716e+02,0.000000e+00
1.687424e+02,0.000000e+00
1.803132e+02,0.000000e+00
1.918840e+02,0.000000e+00
2.034548e+02,2.324615e+03
2.150256e+02,2.343670e+03
2.265964e+02,2.361985e+03
2.381673e+02,2.393353e+03
2.497381e+02,2.427237e+03
2.613088e+02,2.454476e+03
2.728796e+02,2.479803e+03
2.844504e+02,2.526115e+03
2.960212e+02,2.513491e+03
3.075920e+02,2.521013e+03
3.191628e+02,2.546030e+03
3.307336e+02,2.561975e+03
3.423044e+02,2.579697e+03
3.538752e+02,2.597535e+03
3.654461e+02,2.607733e+03
3.770169e+02,2.655870e+03
3.885877e+02,2.630416e+03
4.001585e+02,2.649636e+03
4.117293e+02,2.659926e+03
4.233001e+02,2.662641e+03
4.348709e+02,2.709961e+03
4.464417e+02,2.705322e+03
4.580125e+02,2.725769e+03
4.695833e+02,2.716939e+03
4.811541e+02,2.705937e+03
4.927249e+02,2.733951e+03
5.042957e+02,2.738519e+03
5.158665e+02,2.762396e+03
5.274373e+02,2.765996e+03
5.390081e+02,2.793804e+03
5.505789e+02,2.803435e+03
5.621497e+02,2.826516e+03
5.737205e+02,2.785167e+03
5.852913e+02,2.777034e+03
5.968621e+02,2.810272e+03
6.084329e+02,2.812482e+03
6.200037e+02,2.794330e+03
6.315745e+02,2.788481e+03
6.431453e+02,2.809094e+03
6.547161e+02,2.805599e+03
6.662869e+02,2.829082e+03
6.778577e+02,2.804421e+03
6.894285e+02,2.792664e+03
7.009993e+02,2.796964e+03
7.125701e+02,2.781452e+03
7.241409e+02,2.784090e+03
7.357117e+02,2.774827e+03
7.472825e+02,2.777135e+03
7.588533e+02,2.786882e+03
7.704241e+02,2.786165e+03
7.819949e+02,2.776701e+03
7.935657e+02,2.764762e+03
8.051365e+02,2.768962e+03
8.167073e+02,2.755148e+03
8.282781e+02,2.778118e+03
8.398489e+02,2.761728e+03
8.514197e+02,2.753189e+03
8.629905e+02,2.739000e+03
8.745613e+02,2.741612e+03
8.861321e+02,2.743621e+03
8.977029e+02,2.738144e+03
9.092737e+02,2.722502e+03
9.208445e+02,2.719139e+03
9.324153e+02,2.704192e+03
9.439861e+02,2.699695e+03
9.555569e+02,2.671975e+03
9.671277e+02,2.688347e+03
9.786985e+02,2.659325e+03
9.902693e+02,2.652476e+03
1.001840e+03,2.644523e+03
1.013411e+03,2.651548e+03
1.024982e+03,2.644982e+03
1.036552e+03,2.652946e+03
1.048123e+03,2.635720e+03
1.059694e+03,2.626222e+03
1.071265e+03,2.647537e+03
1.082836e+03,2.639187e+03
1.094406e+03,2.662467e+03
1.105977e+03,2.621413e+03
1.117548e+03,2.624671e+03
1.129119e+03,2.590917e+03
1.140690e+03,2.587605e+03
1.152261e+03,2.586199e+03
1.163831e+03,2.559105e+03
1.175402e+03,2.546335e+03
1.186973e+03,2.539185e+03
1.198544e+03,2.547112e+03
1.210115e+03,2.533487e+03
1.221685e+03,2.538924e+03
1.233256e+03,2.526631e+03
1.244827e+03,2.530824e+03
1.256398e+03,2.514498e+03
1.267969e+03,2.497777e+03
1.279539e+03,2.511279e+03
1.291110e+03,2.507278e+03
1.302681e+03,2.497725e+03
1.314252e+03,2.497321e+03
1.325823e+03,2.516263e+03
1.337393e+03,2.526290e+03
1.348964e+03,2.519180e+03
1.360535e+03,2.527907e+03
1.372106e+03,2.541919e+03
1.383677e+03,2.533720e+03
1.395247e+03,2.501964e+03
1.406818e+03,2.489495e+03
1.418389e+03,2.482150e+03
1.429960e+03,2.478575e+03
1.441531e+03,2.456077e+03
1.453101e+03,2.461530e+03
1.464672e+03,2.460925e+03
1.476243e+03,2.433415e+03
1.487814e+03,2.412282e+03
1.499385e+03,2.400345e+03
1.510955e+03,2.400042e+03
1.522526e+03,2.399352e+03
1.534097e+03,2.370085e+03
1.545668e+03,2.368731e+03
1.557239e+03,2.362557e+03
1.568809e+03,2.393904e+03
1.580380e+03,2.374026e+03
1.591951e+03,2.342766e+03
1.603522e+03,2.327873e+03
1.615093e+03,2.320731e+03
1.626663e+03,2.283852e+03
1.638234e+03,2.281631e+03
1.649805e+03,2.266753e+03
1.661376e+03,2.254629e+03
1.672947e+03,2.246358e+03
1.684517e+03,2.235804e+03
1.696088e+03,2.228769e+03
1.707659e+03,2.229078e+03
1.719230e+03,2.217702e+03
1.730801e+03,2.191599e+03
1.742371e+03,2.187873e+03
1.753942e+03,2.192046e+03
1.765513e+03,2.195298e+03
1.777084e+03,2.169009e+03
1.788655e+03,2.147689e+03
1.800225e+03,2.143553e+03
1.811796e+03,2.134876e+03
1.823367e+03,2.128019e+03
1.834938e+03,2.114207e+03
1.846509e+03,2.123189e+03
1.858079e+03,2.102142e+03
1.869650e+03,2.092644e+03
1.881221e+03,2.073302e+03
1.892792e+03,2.073140e+03
1.904363e+03,2.055573e+03
1.915933e+03,2.020914e+03
1.927504e+03,2.020186e+03
1.939075e+03,2.008652e+03
1.950646e+03,2.013754e+03
1.962217e+03,1.984318e+03
1.973787e+03,1.983783e+03
1.985358e+03,1.976973e+03
1.996929e+03,1.965767e+03
2.008500e+03,1.952460e+03
2.020071e+03,1.928168e+03
2.031641e+03,1.904930e+03
2.043212e+03,1.904660e+03
2.054783e+03,1.861560e+03
2.066354e+03,1.875790e+03
2.077925e+03,1.846389e+03
2.089496e+03,1.870977e+03
2.101066e+03,1.824494e+03
2.112637e+03,1.829230e+03
2.124208e+03,1.815103e+03
2.135779e+03,1.790506e+03
2.147350e+03,1.774383e+03
2.158920e+03,1.780991e+03
2.170491e+03,1.778464e+03
2.182062e+03,1.746428e+03
2.193633e+03,1.741729e+03
2.205204e+03,1.733750e+03
2.216774e+03,1.721778e+03
2.228345e+03,1.672756e+03
2.239916e+03,1.694227e+03
2.251487e+03,1.673266e+03
2.263058e+03,1.650833e+03
2.274628e+03,1.633384e+03
2.286199e+03,1.635004e+03
2.297770e+03,1.622180e+03
2.309341e+03,1.599439e+03
2.320912e+03,1.595505e+03
2.332482e+03,1.581246e+03
2.344053e+03,1.576328e+03
2.355624e+03,1.545663e+03
2.367195e+03,1.519691e+03
2.378766e+03,1.534318e+03
2.390336e+03,1.520419e+03
2.401907e+03,1.509136e+03
2.413478e+03,1.490277e+03
2.425049e+03,1.505677e+03
2.436620e+03,1.475444e+03
2.448190e+03,1.479376e+03
2.459761e+03,1.447702e+03
2.471332e+03,1.442681e+03
2.482903e+03,1.441281e+03
2.494474e+03,1.408067e+03
2.506044e+03,1.404132e+03
2.517615e+03,1.401251e+03
2.529186e+03,1.404927e+03
2.540757e+03,1.379528e+03
2.552328e+03,1.387335e+03
2.563898e+03,1.365727e+03
2.575469e+03,1.362226e+03
2.587040e+03,1.351702e+03
2.598611e+03,1.341529e+03
2.610182e+03,1.320910e+03
2.621752e+03,1.311250e+03
2.633323e+03,1.326358e+03
2.644894e+03,1.295919e+03
2.656465e+03,1.293980e+03
2.668036e+03,1.307375e+03
2.679606e+03,1.283955e+03
2.691177e+03,1.289602e+03
2.702748e+03,1.256136e+03
2.714319e+03,1.287226e+03
2.725890e+03,1.246088e+03
2.737460e+03,1.245800e+03
2.749031e+03,1.252198e+03
2.760602e+03,1.204320e+03
2.772173e+03,1.234824e+03
2.783744e+03,1.202145e+03
2.795314e+03,1.217392e+03
2.806885e+03,1.196894e+03
2.818456e+03,1.194298e+03
2.830027e+03,1.208446e+03
2.841598e+03,1.198905e+03
2.853168e+03,1.181958e+03
2.864739e+03,1.154602e+03
2.876310e+03,1.176698e+03
2.887881e+03,1.174411e+03
2.899452e+03,1.191030e+03
2.911022e+03,1.156516e+03
2.922593e+03,1.155640e+03
2.934164e+03,1.133885e+03
2.945735e+03,1.155128e+03
2.957306e+03,1.153577e+03
2.968876e+03,1.120395e+03
2.980447e+03,1.075162e+03
2.992018e+03,1.081509e+03
3.003589e+03,1.071421e+03
3.015160e+03,1.055265e+03
3.026730e+03,1.043118e+03
3.038301e+03,1.037628e+03
3.049872e+03,1.031897e+03
3.061443e+03,1.032569e+03
3.073014e+03,1.030145e+03
3.084584e+03,1.010230e+03
3.096155e+03,1.014762e+03
3.107726e+03,1.042898e+03
3.119297e+03,1.037309e+03
3.130868e+03,1.045109e+03
3.142438e+03,9.960265e+02
3.154009e+03,1.036210e+03
3.165580e+03,1.006271e+03
3.177151e+03,1.009498e+03
3.188722e+03,9.969511e+02
3.200292e+03,1.032193e+03
3.211863e+03,0.000000e+00
3.223434e+03,0.000000e+00
3.235005e+03,0.000000e+00
3.246576e+03,0.000000e+00
3.258146e+03,0.000000e+00
3.269717e+03,0.000000e+00
3.281288e+03,0.000000e+00
3.292859e+03,0.000000e+00
3.304430e+03,0.000000e+00
3.316000e+03,0.000000e+00
3.327571e+03,0.000000e+00
3.339142e+03,0.000000e+00
3.350713e+03,0.000000e+00
3.362284e+03,0.000000e+00
3.373854e+03,0.000000e+00
3.385425e+03,0.000000e+00
3.396996e+03,0.000000e+00
3.408567e+03,0.000000e+00
3.420138e+03,0.000000e+00
3.431708e+03,0.000000e+00
3.443279e+03,0.000000e+00
3.454850e+03,0.000000e+00
3.466421e+03,0.000000e+00
3.477992e+03,0.000000e+00
3.489563e+03,0.000000e+00
3.500169e+03,0.000000e+00

File: black fibre7.CSV
9.931763e+01,0.000000e+00
1.108884e+02,0.000000e+00
1.224592e+02,0.000000e+00
1.340300e+02,0.000000e+00
1.456008e+02,0.000000e+00
1.571716e+02,0.000000e+00
1.687424e+02,0.000000e+00
1.803132e+02,0.000000e+00
1.918840e+02,0.000000e+00
2.034548e+02,3.387028e+03
2.150256e+02,3.396789e+03
2.265964e+02,3.396284e+03
2.381673e+02,3.446529e+03
2.497381e+02,3.475593e+03
2.613088e+02,3.484233e+03
2.728796e+02,3.500662e+03
2.844504e+02,3.523020e+03
2.960212e+02,3.536569e+03
3.075920e+02,3.536069e+03
3.191628e+02,3.560218e+03
3.307336e+02,3.581186e+03
3.423044e+02,3.591109e+03
3.538752e+02,3.604301e+03
3.654461e+02,3.601280e+03
3.770169e+02,3.642219e+03
3.885877e+02,3.628330e+03
4.001585e+02,3.643091e+03
4.117293e+02,3.623509e+03
4.233001e+02,3.639970e+03
4.348709e+02,3.650449e+03
4.464417e+02,3.618823e+03
4.580125e+02,3.635289e+03
4.695833e+02,3.612664e+03
4.811541e+02,3.666380e+03
4.927249e+02,3.701037e+03
5.042957e+02,3.627172e+03
5.158665e+02,3.629460e+03
5.274373e+02,3.602147e+03
5.390081e+02,3.608961e+03
5.505789e+02,3.603755e+03
5.621497e+02,3.582406e+03
5.737205e+02,3.572366e+03
5.852913e+02,3.554348e+03
5.968621e+02,3.576824e+03
6.084329e+02,3.570747e+03
6.200037e+02,3.552108e+03
6.315745e+02,3.542408e+03
6.431453e+02,3.529242e+03
6.547161e+02,3.513157e+03
6.662869e+02,3.502357e+03
6.778577e+02,3.465018e+03
6.894285e+02,3.463807e+03
7.009993e+02,3.470735e+03
7.125701e+02,3.442363e+03
7.241409e+02,3.447618e+03
7.357117e+02,3.419736e+03
7.472825e+02,3.388529e+03
7.588533e+02,3.379526e+03
7.704241e+02,3.361153e+03
7.819949e+02,3.348220e+03
7.935657e+02,3.338788e+03
8.051365e+02,3.316346e+03
8.167073e+02,3.287325e+03
8.282781e+02,3.284805e+03
8.398489e+02,3.272350e+03
8.514197e+02,3.262437e+03
8.629905e+02,3.236349e+03
8.745613e+02,3.222193e+03
8.861321e+02,3.202105e+03
8.977029e+02,3.184969e+03
9.092737e+02,3.187137e+03
9.208445e+02,3.138883e+03
9.324153e+02,3.127500e+03
9.439861e+02,3.107927e+03
9.555569e+02,3.079603e+03
9.671277e+02,3.052672e+03
9.786985e+02,3.066734e+03
9.902693e+02,3.023372e+03
1.001840e+03,3.019263e+03
1.013411e+03,3.010694e+03
1.024982e+03,2.996236e+03
1.036552e+03,2.981125e+03
1.048123e+03,2.946694e+03
1.059694e+03,2.949643e+03
1.071265e+03,2.953415e+03
1.082836e+03,2.951315e+03
1.094406e+03,2.948088e+03
1.105977e+03,2.918254e+03
1.117548e+03,2.947434e+03
1.129119e+03,2.964476e+03
1.140690e+03,2.926184e+03
1.152261e+03,2.978374e+03
1.163831e+03,2.881479e+03
1.175402e+03,2.861725e+03
1.186973e+03,2.848758e+03
1.198544e+03,2.838971e+03
1.210115e+03,2.834750e+03
1.221685e+03,2.802470e+03
1.233256e+03,2.772839e+03
1.244827e+03,2.760727e+03
1.256398e+03,2.737406e+03
1.267969e+03,2.743540e+03
1.279539e+03,2.777510e+03
1.291110e+03,2.773629e+03
1.302681e+03,2.717657e+03
1.314252e+03,2.683585e+03
1.325823e+03,2.676779e+03
1.337393e+03,2.716593e+03
1.348964e+03,2.703460e+03
1.360535e+03,2.663337e+03
1.372106e+03,2.636583e+03
1.383677e+03,2.629263e+03
1.395247e+03,2.559313e+03
1.406818e+03,2.552698e+03
1.418389e+03,2.557744e+03
1.429960e+03,2.540191e+03
1.441531e+03,2.503912e+03
1.453101e+03,2.487148e+03
1.464672e+03,2.474297e+03
1.476243e+03,2.471322e+03
1.487814e+03,2.455783e+03
1.499385e+03,2.439198e+03
1.510955e+03,2.421899e+03
1.522526e+03,2.401507e+03
1.534097e+03,2.403742e+03
1.545668e+03,2.390527e+03
1.557239e+03,2.390518e+03
1.568809e+03,2.409395e+03
1.580380e+03,2.410894e+03
1.591951e+03,2.393447e+03
1.603522e+03,2.319832e+03
1.615093e+03,2.321877e+03
1.626663e+03,2.276805e+03
1.638234e+03,2.266028e+03
1.649805e+03,2.246683e+03
1.661376e+03,2.236107e+03
1.672947e+03,2.210583e+03
1.684517e+03,2.204007e+03
1.696088e+03,2.186197e+03
1.707659e+03,2.168304e+03
1.719230e+03,2.152750e+03
1.730801e+03,2.141980e+03
1.742371e+03,2.113887e+03
1.753942e+03,2.083281e+03
1.765513e+03,2.084778e+03
1.777084e+03,2.057294e+03
1.788655e+03,2.059890e+03
1.800225e+03,2.023487e+03
1.811796e+03,2.021954e+03
1.823367e+03,1.998666e+03
1.834938e+03,1.998746e+03
1.846509e+03,1.970547e+03
1.858079e+03,1.944038e+03
1.869650e+03,1.913252e+03
1.881221e+03,1.919970e+03
1.892792e+03,1.901832e+03
1.904363e+03,1.868522e+03
1.915933e+03,1.859362e+03
1.927504e+03,1.845247e+03
1.939075e+03,1.816691e+03
1.950646e+03,1.810420e+03
1.962217e+03,1.762988e+03
1.973787e+03,1.760067e+03
1.985358e+03,1.743015e+03
1.996929e+03,1.742572e+03
2.008500e+03,1.728570e+03
2.020071e+03,1.700516e+03
2.031641e+03,1.684503e+03
2.043212e+03,1.656214e+03
2.054783e+03,1.650322e+03
2.066354e+03,1.620175e+03
2.077925e+03,1.621180e+03
2.089496e+03,1.597606e+03
2.101066e+03,1.557851e+03
2.112637e+03,1.553000e+03
2.124208e+03,1.557803e+03
2.135779e+03,1.529579e+03
2.147350e+03,1.503779e+03
2.158920e+03,1.482256e+03
2.170491e+03,1.469753e+03
2.182062e+03,1.441657e+03
2.193633e+03,1.427301e+03
2.205204e+03,1.411560e+03
2.216774e+03,1.415908e+03
2.228345e+03,1.366665e+03
2.239916e+03,1.377457e+03
2.251487e+03,1.349661e+03
2.263058e+03,1.342208e+03
2.274628e+03,1.319833e+03
2.286199e+03,1.307351e+03
2.297770e+03,1.286206e+03
2.309341e+03,1.287672e+03
2.320912e+03,1.263493e+03
2.332482e+03,1.261027e+03
2.344053e+03,1.235784e+03
2.355624e+03,1.217109e+03
2.367195e+03,1.198683e+03
2.378766e+03,1.183854e+03
2.390336e+03,1.184158e+03
2.401907e+03,1.168693e+03
2.413478e+03,1.148864e+03
2.425049e+03,1.118938e+03
2.436620e+03,1.121095e+03
2.448190e+03,1.104997e+03
2.459761e+03,1.078893e+03
2.471332e+03,1.095303e+03
2.482903e+03,1.076120e+03
2.494474e+03,1.058794e+03
2.506044e+03,1.038457e+03
2.517615e+03,1.038728e+03
2.529186e+03,1.027589e+03
2.540757e+03,1.019765e+03
2.552328e+03,1.006301e+03
2.563898e+03,9.978659e+02
2.575469e+03,9.893580e+02
2.587040e+03,9.705504e+02
2.598611e+03,9.674864e+02
2.610182e+03,9.521077e+02
2.621752e+03,9.597568e+02
2.633323e+03,9.319412e+02
2.644894e+03,9.337509e+02
2.656465e+03,9.300005e+02
2.668036e+03,9.113444e+02
2.679606e+03,9.052811e+02
2.691177e+03,8.925098e+02
2.702748e+03,8.820557e+02
2.714319e+03,8.839711e+02
2.725890e+03,8.645946e+02
2.737460e+03,8.594781e+02
2.749031e+03,8.445808e+02
2.760602e+03,8.514884e+02
2.772173e+03,8.452842e+02
2.783744e+03,8.454871e+02
2.795314e+03,8.064232e+02
2.806885e+03,7.910290e+02
2.818456e+03,8.094267e+02
2.830027e+03,8.177645e+02
2.841598e+03,8.004953e+02
2.853168e+03,8.077597e+02
2.864739e+03,8.119951e+02
2.876310e+03,7.856984e+02
2.887881e+03,8.037501e+02
2.899452e+03,8.109936e+02
2.911022e+03,8.068066e+02
2.922593e+03,7.852055e+02
2.934164e+03,7.885372e+02
2.945735e+03,7.511533e+02
2.957306e+03,7.724196e+02
2.968876e+03,7.405811e+02
2.980447e+03,7.307886e+02
2.992018e+03,7.142396e+02
3.003589e+03,7.006597e+02
3.015160e+03,6.966877e+02
3.026730e+03,7.012792e+02
3.038301e+03,7.097814e+02
3.049872e+03,7.038127e+02
3.061443e+03,7.074804e+02
3.073014e+03,6.694554e+02
3.084584e+03,6.770043e+02
3.096155e+03,6.708792e+02
3.107726e+03,6.840638e+02
3.119297e+03,6.554959e+02
3.130868e+03,6.504443e+02
3.142438e+03,6.658910e+02
3.154009e+03,6.856893e+02
3.165580e+03,6.958214e+02
3.177151e+03,6.546044e+02
3.188722e+03,6.966846e+02
3.200292e+03,7.027979e+02
3.211863e+03,0.000000e+00
3.223434e+03,0.000000e+00
3.235005e+03,0.000000e+00
3.246576e+03,0.000000e+00
3.258146e+03,0.000000e+00
3.269717e+03,0.000000e+00
3.281288e+03,0.000000e+00
3.292859e+03,0.000000e+00
3.304430e+03,0.000000e+00
3.316000e+03,0.000000e+00
3.327571e+03,0.000000e+00
3.339142e+03,0.000000e+00
3.350713e+03,0.000000e+00
3.362284e+03,0.000000e+00
3.373854e+03,0.000000e+00
3.385425e+03,0.000000e+00
3.396996e+03,0.000000e+00
3.408567e+03,0.000000e+00
3.420138e+03,0.000000e+00
3.431708e+03,0.000000e+00
3.443279e+03,0.000000e+00
3.454850e+03,0.000000e+00
3.466421e+03,0.000000e+00
3.477992e+03,0.000000e+00
3.489563e+03,0.000000e+00
3.500169e+03,0.000000e+00

File: blue fibre1.CSV
9.931763e+01,0.000000e+00
1.108884e+02,0.000000e+00
1.224592e+02,0.000000e+00
1.340300e+02,0.000000e+00
1.456008e+02,0.000000e+00
1.571716e+02,0.000000e+00
1.687424e+02,0.000000e+00
1.803132e+02,0.000000e+00
1.918840e+02,0.000000e+00
2.034548e+02,2.256707e+03
2.150256e+02,2.262457e+03
2.265964e+02,2.261305e+03
2.381673e+02,2.279446e+03
2.497381e+02,2.283999e+03
2.613088e+02,2.286867e+03
2.728796e+02,2.294887e+03
2.844504e+02,2.303773e+03
2.960212e+02,2.293569e+03
3.075920e+02,2.304823e+03
3.191628e+02,2.309745e+03
3.307336e+02,2.322295e+03
3.423044e+02,2.307859e+03
3.538752e+02,2.304257e+03
3.654461e+02,2.300813e+03
3.770169e+02,2.331285e+03
3.885877e+02,2.295012e+03
4.001585e+02,2.288212e+03
4.117293e+02,2.289049e+03
4.233001e+02,2.267103e+03
4.348709e+02,2.287545e+03
4.464417e+02,2.279413e+03
4.580125e+02,2.266735e+03
4.695833e+02,2.244611e+03
4.811541e+02,2.244621e+03
4.927249e+02,2.242347e+03
5.042957e+02,2.223878e+03
5.158665e+02,2.233793e+03
5.274373e+02,2.220970e+03
5.390081e+02,2.194642e+03
5.505789e+02,2.186802e+03
5.621497e+02,2.174337e+03
5.737205e+02,2.181718e+03
5.852913e+02,2.151384e+03
5.968621e+02,2.169815e+03
6.084329e+02,2.152650e+03
6.200037e+02,2.131628e+03
6.315745e+02,2.122597e+03
6.431453e+02,2.116952e+03
6.547161e+02,2.093216e+03
6.662869e+02,2.082136e+03
6.778577e+02,2.060421e+03
6.894285e+02,2.061790e+03
7.009993e+02,2.030252e+03
7.125701e+02,2.037024e+03
7.241409e+02,2.022624e+03
7.357117e+02,2.003088e+03
7.472825e+02,1.985914e+03
7.588533e+02,1.983031e+03
7.704241e+02,1.951072e+03
7.819949e+02,1.942817e+03
7.935657e+02,1.945434e+03
8.051365e+02,1.926389e+03
8.167073e+02,1.905497e+03
8.282781e+02,1.909515e+03
8.398489e+02,1.886581e+03
8.514197e+02,1.873554e+03
8.629905e+02,1.863366e+03
8.745613e+02,1.855079e+03
8.861321e+02,1.832843e+03
8.977029e+02,1.836681e+03
9.092737e+02,1.810532e+03
9.208445e+02,1.783394e+03
9.324153e+02,1.781093e+03
9.439861e+02,1.761674e+03
9.555569e+02,1.757311e+03
9.671277e+02,1.747811e+03
9.786985e+02,1.730592e+03
9.902693e+02,1.716479e+03
1.001840e+03,1.708821e+03
1.013411e+03,1.688829e+03
1.024982e+03,1.686408e+03
1.036552e+03,1.677458e+03
1.048123e+03,1.662670e+03
1.059694e+03,1.650137e+03
1.071265e+03,1.646109e+03
1.082836e+03,1.642561e+03
1.094406e+03,1.658150e+03
1.105977e+03,1.623875e+03
1.117548e+03,1.626340e+03
1.129119e+03,1.601971e+03
1.140690e+03,1.577395e+03
1.152261e+03,1.587465e+03
1.163831e+03,1.569746e+03
1.175402e+03,1.538866e+03
1.186973e+03,1.539805e+03
1.198544e+03,1.537118e+03
1.210115e+03,1.519935e+03
1.221685e+03,1.510524e+03
1.233256e+03,1.501135e+03
1.244827e+03,1.487321e+03
1.256398e+03,1.472536e+03
1.267969e+03,1.468519e+03
1.279539e+03,1.471039e+03
1.291110e+03,1.465616e+03
1.302681e+03,1.456873e+03
1.314252e+03,1.446235e+03
1.325823e+03,1.443272e+03
1.337393e+03,1.440384e+03
1.348964e+03,1.430059e+03
1.360535e+03,1.417800e+03
1.372106e+03,1.401916e+03
1.383677e+03,1.393611e+03
1.395247e+03,1.367594e+03
1.406818e+03,1.366450e+03
1.418389e+03,1.376210e+03
1.429960e+03,1.342338e+03
1.441531e+03,1.329259e+03
1.453101e+03,1.318623e+03
1.464672e+03,1.312766e+03
1.476243e+03,1.308307e+03
1.487814e+03,1.293152e+03
1.499385e+03,1.286335e+03
1.510955e+03,1.275674e+03
1.522526e+03,1.271133e+03
1.534097e+03,1.257466e+03
1.545668e+03,1.245677e+03
1.557239e+03,1.247062e+03
1.568809e+03,1.232327e+03
1.580380e+03,1.230186e+03
1.591951e+03,1.232441e+03
1.603522e+03,1.224500e+03
1.615093e+03,1.206247e+03
1.626663e+03,1.194082e+03
1.638234e+03,1.170793e+03
1.649805e+03,1.162504e+03
1.661376e+03,1.166327e+03
1.672947e+03,1.147610e+03
1.684517e+03,1.134227e+03
1.696088e+03,1.121268e+03
1.707659e+03,1.117615e+03
1.719230e+03,1.104171e+03
1.730801e+03,1.106388e+03
1.742371e+03,1.091628e+03
1.753942e+03,1.065098e+03
1.765513e+03,1.064027e+03
1.777084e+03,1.048251e+03
1.788655e+03,1.050860e+03
1.800225e+03,1.032851e+03
1.811796e+03,1.025400e+03
1.823367e+03,1.006381e+03
1.834938e+03,1.017417e+03
1.846509e+03,9.978420e+02
1.858079e+03,9.896394e+02
1.869650e+03,9.780167e+02
1.881221e+03,9.716181e+02
1.892792e+03,9.634729e+02
1.904363e+03,9.345975e+02
1.915933e+03,9.381289e+02
1.927504e+03,9.389567e+02
1.939075e+03,9.104080e+02
1.950646e+03,9.045066e+02
1.962217e+03,9.006272e+02
1.973787e+03,8.824229e+02
1.985358e+03,8.840239e+02
1.996929e+03,8.648096e+02
2.008500e+03,8.598235e+02
2.020071e+03,8.495040e+02
2.031641e+03,8.370694e+02
2.043212e+03,8.190714e+02
2.054783e+03,8.220133e+02
2.066354e+03,8.189156e+02
2.077925e+03,7.896940e+02
2.089496e+03,7.920410e+02
2.101066e+03,7.624453e+02
2.112637e+03,7.719067e+02
2.124208e+03,7.697718e+02
2.135779e+03,7.578452e+02
2.147350e+03,7.433271e+02
2.158920e+03,7.278878e+02
2.170491e+03,7.287673e+02
2.182062e+03,7.230653e+02
2.193633e+03,7.113715e+02
2.205204e+03,6.971545e+02
2.216774e+03,6.872942e+02
2.228345e+03,6.771826e+02
2.239916e+03,6.738616e+02
2.251487e+03,6.559424e+02
2.263058e+03,6.580790e+02
2.274628e+03,6.578047e+02
2.286199e+03,6.368777e+02
2.297770e+03,6.295582e+02
2.309341e+03,6.202552e+02
2.320912e+03,6.223830e+02
2.332482e+03,6.132838e+02
2.344053e+03,6.113466e+02
2.355624e+03,5.870391e+02
2.367195e+03,5.849684e+02
2.378766e+03,5.859258e+02
2.390336e+03,5.702908e+02
2.401907e+03,5.781068e+02
2.413478e+03,5.567892e+02
2.425049e+03,5.577943e+02
2.436620e+03,5.427634e+02
2.448190e+03,5.352137e+02
2.459761e+03,5.370611e+02
2.471332e+03,5.208323e+02
2.482903e+03,5.215303e+02
2.494474e+03,5.083585e+02
2.506044e+03,5.178629e+02
2.517615e+03,4.981531e+02
2.529186e+03,5.044167e+02
2.540757e+03,4.833940e+02
2.552328e+03,5.002851e+02
2.563898e+03,4.875176e+02
2.575469e+03,4.828448e+02
2.587040e+03,4.716396e+02
2.598611e+03,4.645439e+02
2.610182e+03,4.642639e+02
2.621752e+03,4.680603e+02
2.633323e+03,4.570095e+02
2.644894e+03,4.482889e+02
2.656465e+03,4.561330e+02
2.668036e+03,4.526494e+02
2.679606e+03,4.465761e+02
2.691177e+03,4.335899e+02
2.702748e+03,4.343174e+02
2.714319e+03,4.235729e+02
2.725890e+03,4.196908e+02
2.737460e+03,4.131285e+02
2.749031e+03,4.120081e+02
2.760602e+03,4.145656e+02
2.772173e+03,4.124130e+02
2.783744e+03,4.113441e+02
2.795314e+03,3.953412e+02
2.806885e+03,3.794718e+02
2.818456e+03,3.907199e+02
2.830027e+03,3.828859e+02
2.841598e+03,4.027311e+02
2.853168e+03,3.972424e+02
2.864739e+03,4.031473e+02
2.876310e+03,4.187786e+02
2.887881e+03,4.203206e+02
2.899452e+03,4.196837e+02
2.911022e+03,4.223548e+02
2.922593e+03,3.918810e+02
2.934164e+03,3.927879e+02
2.945735e+03,3.939503e+02
2.957306e+03,4.144754e+02
2.968876e+03,3.678875e+02
2.980447e+03,3.613608e+02
2.992018e+03,3.523320e+02
3.003589e+03,3.652754e+02
3.015160e+03,3.516324e+02
3.026730e+03,3.414262e+02
3.038301e+03,3.272281e+02
3.049872e+03,3.451572e+02
3.061443e+03,3.489281e+02
3.073014e+03,3.476932e+02
3.084584e+03,3.537047e+02
3.096155e+03,3.533764e+02
3.107726e+03,3.307204e+02
3.119297e+03,3.407437e+02
3.130868e+03,3.409510e+02
3.142438e+03,3.350187e+02
3.154009e+03,3.819475e+02
3.165580e+03,3.544252e+02
3.177151e+03,3.164525e+02
3.188722e+03,3.221377e+02
3.200292e+03,3.367529e+02
3.211863e+03,0.000000e+00
3.223434e+03,0.000000e+00
3.235005e+03,0.000000e+00
3.246576e+03,0.000000e+00
3.258146e+03,0.000000e+00
3.269717e+03,0.000000e+00
3.281288e+03,0.000000e+00
3.292859e+03,0.000000e+00
3.304430e+03,0.000000e+00
3.316000e+03,0.000000e+00
3.327571e+03,0.000000e+00
3.339142e+03,0.000000e+00
3.350713e+03,0.000000e+00
3.362284e+03,0.000000e+00
3.373854e+03,0.000000e+00
3.385425e+03,0.000000e+00
3.396996e+03,0.000000e+00
3.408567e+03,0.000000e+00
3.420138e+03,0.000000e+00
3.431708e+03,0.000000e+00
3.443279e+03,0.000000e+00
3.454850e+03,0.000000e+00
3.466421e+03,0.000000e+00
3.477992e+03,0.000000e+00
3.489563e+03,0.000000e+00
3.500169e+03,0.000000e+00