Folder: Taff_Bargoed_microplastics_data/RAMAN_data/06022023_r2 (part 5)

File: blue fibre.CSV
9.931763e+01,0.000000e+00
1.108884e+02,0.000000e+00
1.224592e+02,0.000000e+00
1.340300e+02,0.000000e+00
1.456008e+02,0.000000e+00
1.571716e+02,0.000000e+00
1.687424e+02,0.000000e+00
1.803132e+02,0.000000e+00
1.918840e+02,0.000000e+00
2.034548e+02,4.463838e+03
2.150256e+02,4.467150e+03
2.265964e+02,4.504606e+03
2.381673e+02,4.515974e+03
2.497381e+02,4.533631e+03
2.613088e+02,4.545134e+03
2.728796e+02,4.580481e+03
2.844504e+02,4.591514e+03
2.960212e+02,4.622162e+03
3.075920e+02,4.613783e+03
3.191628e+02,4.626682e+03
3.307336e+02,4.634229e+03
3.423044e+02,4.626083e+03
3.538752e+02,4.634318e+03
3.654461e+02,4.642675e+03
3.770169e+02,4.668295e+03
3.885877e+02,4.633007e+03
4.001585e+02,4.625953e+03
4.117293e+02,4.630489e+03
4.233001e+02,4.609234e+03
4.348709e+02,4.619625e+03
4.464417e+02,4.605696e+03
4.580125e+02,4.595662e+03
4.695833e+02,4.553125e+03
4.811541e+02,4.551692e+03
4.927249e+02,4.544300e+03
5.042957e+02,4.544710e+03
5.158665e+02,4.511479e+03
5.274373e+02,4.510097e+03
5.390081e+02,4.459312e+03
5.505789e+02,4.459405e+03
5.621497e+02,4.439328e+03
5.737205e+02,4.423769e+03
5.852913e+02,4.390909e+03
5.968621e+02,4.390557e+03
6.084329e+02,4.365149e+03
6.200037e+02,4.312625e+03
6.315745e+02,4.303150e+03
6.431453e+02,4.309555e+03
6.547161e+02,4.257315e+03
6.662869e+02,4.237637e+03
6.778577e+02,4.193881e+03
6.894285e+02,4.194299e+03
7.009993e+02,4.151486e+03
7.125701e+02,4.132429e+03
7.241409e+02,4.124634e+03
7.357117e+02,4.103388e+03
7.472825e+02,4.058110e+03
7.588533e+02,4.053020e+03
7.704241e+02,4.004234e+03
7.819949e+02,3.996715e+03
7.935657e+02,3.998380e+03
8.051365e+02,3.937707e+03
8.167073e+02,3.916896e+03
8.282781e+02,3.879473e+03
8.398489e+02,3.873311e+03
8.514197e+02,3.843139e+03
8.629905e+02,3.789981e+03
8.745613e+02,3.780392e+03
8.861321e+02,3.772970e+03
8.977029e+02,3.719140e+03
9.092737e+02,3.699669e+03
9.208445e+02,3.678601e+03
9.324153e+02,3.635973e+03
9.439861e+02,3.609409e+03
9.555569e+02,3.580015e+03
9.671277e+02,3.576671e+03
9.786985e+02,3.536508e+03
9.902693e+02,3.511491e+03
1.001840e+03,3.480164e+03
1.013411e+03,3.460167e+03
1.024982e+03,3.433721e+03
1.036552e+03,3.432075e+03
1.048123e+03,3.399895e+03
1.059694e+03,3.380354e+03
1.071265e+03,3.384696e+03
1.082836e+03,3.375533e+03
1.094406e+03,3.377282e+03
1.105977e+03,3.319249e+03
1.117548e+03,3.326573e+03
1.129119e+03,3.276694e+03
1.140690e+03,3.257266e+03
1.152261e+03,3.255730e+03
1.163831e+03,3.227776e+03
1.175402e+03,3.189830e+03
1.186973e+03,3.163049e+03
1.198544e+03,3.157844e+03
1.210115e+03,3.144699e+03
1.221685e+03,3.102852e+03
1.233256e+03,3.071001e+03
1.244827e+03,3.067712e+03
1.256398e+03,3.043567e+03
1.267969e+03,3.028090e+03
1.279539e+03,3.023317e+03
1.291110e+03,3.025715e+03
1.302681e+03,2.998485e+03
1.314252e+03,2.990346e+03
1.325823e+03,2.983122e+03
1.337393e+03,2.967733e+03
1.348964e+03,2.944619e+03
1.360535e+03,2.905679e+03
1.372106e+03,2.897117e+03
1.383677e+03,2.878479e+03
1.395247e+03,2.844790e+03
1.406818e+03,2.821921e+03
1.418389e+03,2.819219e+03
1.429960e+03,2.804319e+03
1.441531e+03,2.783629e+03
1.453101e+03,2.774105e+03
1.464672e+03,2.737744e+03
1.476243e+03,2.750597e+03
1.487814e+03,2.695556e+03
1.499385e+03,2.704520e+03
1.510955e+03,2.675220e+03
1.522526e+03,2.665255e+03
1.534097e+03,2.638324e+03
1.545668e+03,2.629002e+03
1.557239e+03,2.616347e+03
1.568809e+03,2.603141e+03
1.580380e+03,2.588246e+03
1.591951e+03,2.563101e+03
1.603522e+03,2.560027e+03
1.615093e+03,2.534820e+03
1.626663e+03,2.507468e+03
1.638234e+03,2.464068e+03
1.649805e+03,2.461313e+03
1.661376e+03,2.435813e+03
1.672947e+03,2.408529e+03
1.684517e+03,2.389329e+03
1.696088e+03,2.362763e+03
1.707659e+03,2.366616e+03
1.719230e+03,2.363722e+03
1.730801e+03,2.308039e+03
1.742371e+03,2.304243e+03
1.753942e+03,2.286090e+03
1.765513e+03,2.277898e+03
1.777084e+03,2.247145e+03
1.788655e+03,2.225256e+03
1.800225e+03,2.218906e+03
1.811796e+03,2.194270e+03
1.823367e+03,2.166526e+03
1.834938e+03,2.145938e+03
1.846509e+03,2.123179e+03
1.858079e+03,2.105871e+03
1.869650e+03,2.082453e+03
1.881221e+03,2.057517e+03
1.892792e+03,2.056181e+03
1.904363e+03,2.019066e+03
1.915933e+03,2.006210e+03
1.927504e+03,1.992120e+03
1.939075e+03,1.970269e+03
1.950646e+03,1.932849e+03
1.962217e+03,1.928902e+03
1.973787e+03,1.902866e+03
1.985358e+03,1.883808e+03
1.996929e+03,1.857621e+03
2.008500e+03,1.833330e+03
2.020071e+03,1.813903e+03
2.031641e+03,1.808353e+03
2.043212e+03,1.765962e+03
2.054783e+03,1.785226e+03
2.066354e+03,1.717608e+03
2.077925e+03,1.703876e+03
2.089496e+03,1.696654e+03
2.101066e+03,1.680854e+03
2.112637e+03,1.660514e+03
2.124208e+03,1.635639e+03
2.135779e+03,1.622335e+03
2.147350e+03,1.577344e+03
2.158920e+03,1.570128e+03
2.170491e+03,1.538549e+03
2.182062e+03,1.527209e+03
2.193633e+03,1.524400e+03
2.205204e+03,1.499691e+03
2.216774e+03,1.481804e+03
2.228345e+03,1.447059e+03
2.239916e+03,1.442173e+03
2.251487e+03,1.428622e+03
2.263058e+03,1.404273e+03
2.274628e+03,1.396504e+03
2.286199e+03,1.362220e+03
2.297770e+03,1.353759e+03
2.309341e+03,1.330352e+03
2.320912e+03,1.310230e+03
2.332482e+03,1.295805e+03
2.344053e+03,1.292279e+03
2.355624e+03,1.273089e+03
2.367195e+03,1.246672e+03
2.378766e+03,1.249590e+03
2.390336e+03,1.212418e+03
2.401907e+03,1.215409e+03
2.413478e+03,1.178682e+03
2.425049e+03,1.180357e+03
2.436620e+03,1.160960e+03
2.448190e+03,1.141073e+03
2.459761e+03,1.116626e+03
2.471332e+03,1.125657e+03
2.482903e+03,1.117544e+03
2.494474e+03,1.087373e+03
2.506044e+03,1.076511e+03
2.517615e+03,1.070329e+03
2.529186e+03,1.053075e+03
2.540757e+03,1.034212e+03
2.552328e+03,1.036429e+03
2.563898e+03,1.018104e+03
2.575469e+03,1.010625e+03
2.587040e+03,9.849702e+02
2.598611e+03,9.842458e+02
2.610182e+03,9.734741e+02
2.621752e+03,9.739733e+02
2.633323e+03,9.667572e+02
2.644894e+03,9.550504e+02
2.656465e+03,9.395524e+02
2.668036e+03,9.238661e+02
2.679606e+03,9.179758e+02
2.691177e+03,9.174258e+02
2.702748e+03,9.032843e+02
2.714319e+03,9.017936e+02
2.725890e+03,8.978133e+02
2.737460e+03,8.609186e+02
2.749031e+03,8.738802e+02
2.760602e+03,8.638788e+02
2.772173e+03,8.496931e+02
2.783744e+03,8.564271e+02
2.795314e+03,8.305342e+02
2.806885e+03,8.343731e+02
2.818456e+03,8.310272e+02
2.830027e+03,8.084945e+02
2.841598e+03,8.381882e+02
2.853168e+03,8.338967e+02
2.864739e+03,8.208445e+02
2.876310e+03,7.979564e+02
2.887881e+03,8.254581e+02
2.899452e+03,8.148126e+02
2.911022e+03,8.014784e+02
2.922593e+03,7.892793e+02
2.934164e+03,8.105819e+02
2.945735e+03,7.726323e+02
2.957306e+03,8.309980e+02
2.968876e+03,7.833623e+02
2.980447e+03,7.316214e+02
2.992018e+03,7.404667e+02
3.003589e+03,7.217881e+02
3.015160e+03,7.164172e+02
3.026730e+03,7.278358e+02
3.038301e+03,7.256099e+02
3.049872e+03,7.247153e+02
3.061443e+03,7.022630e+02
3.073014e+03,6.940472e+02
3.084584e+03,7.225519e+02
3.096155e+03,7.266418e+02
3.107726e+03,6.673525e+02
3.119297e+03,6.887991e+02
3.130868e+03,7.119148e+02
3.142438e+03,7.002188e+02
3.154009e+03,7.056354e+02
3.165580e+03,7.138454e+02
3.177151e+03,6.714249e+02
3.188722e+03,7.080455e+02
3.200292e+03,7.126330e+02
3.211863e+03,0.000000e+00
3.223434e+03,0.000000e+00
3.235005e+03,0.000000e+00
3.246576e+03,0.000000e+00
3.258146e+03,0.000000e+00
3.269717e+03,0.000000e+00
3.281288e+03,0.000000e+00
3.292859e+03,0.000000e+00
3.304430e+03,0.000000e+00
3.316000e+03,0.000000e+00
3.327571e+03,0.000000e+00
3.339142e+03,0.000000e+00
3.350713e+03,0.000000e+00
3.362284e+03,0.000000e+00
3.373854e+03,0.000000e+00
3.385425e+03,0.000000e+00
3.396996e+03,0.000000e+00
3.408567e+03,0.000000e+00
3.420138e+03,0.000000e+00
3.431708e+03,0.000000e+00
3.443279e+03,0.000000e+00
3.454850e+03,0.000000e+00
3.466421e+03,0.000000e+00
3.477992e+03,0.000000e+00
3.489563e+03,0.000000e+00
3.500169e+03,0.000000e+00

File: clear fibre.CSV
9.931763e+01,0.000000e+00
1.108884e+02,0.000000e+00
1.224592e+02,0.000000e+00
1.340300e+02,0.000000e+00
1.456008e+02,0.000000e+00
1.571716e+02,0.000000e+00
1.687424e+02,0.000000e+00
1.803132e+02,0.000000e+00
1.918840e+02,0.000000e+00
2.034548e+02,1.051899e+04
2.150256e+02,1.057905e+04
2.265964e+02,1.068651e+04
2.381673e+02,1.083713e+04
2.497381e+02,1.092278e+04
2.613088e+02,1.101875e+04
2.728796e+02,1.114345e+04
2.844504e+02,1.128443e+04
2.960212e+02,1.138987e+04
3.075920e+02,1.148845e+04
3.191628e+02,1.160775e+04
3.307336e+02,1.175910e+04
3.423044e+02,1.188976e+04
3.538752e+02,1.203829e+04
3.654461e+02,1.215099e+04
3.770169e+02,1.231110e+04
3.885877e+02,1.246675e+04
4.001585e+02,1.259455e+04
4.117293e+02,1.274362e+04
4.233001e+02,1.288550e+04
4.348709e+02,1.304495e+04
4.464417e+02,1.321596e+04
4.580125e+02,1.333318e+04
4.695833e+02,1.347341e+04
4.811541e+02,1.360224e+04
4.927249e+02,1.374474e+04
5.042957e+02,1.387491e+04
5.158665e+02,1.399692e+04
5.274373e+02,1.410203e+04
5.390081e+02,1.416972e+04
5.505789e+02,1.428556e+04
5.621497e+02,1.439837e+04
5.737205e+02,1.446632e+04
5.852913e+02,1.457575e+04
5.968621e+02,1.471280e+04
6.084329e+02,1.480358e+04
6.200037e+02,1.484330e+04
6.315745e+02,1.490827e+04
6.431453e+02,1.500741e+04
6.547161e+02,1.510578e+04
6.662869e+02,1.514584e+04
6.778577e+02,1.514799e+04
6.894285e+02,1.519395e+04
7.009993e+02,1.527256e+04
7.125701e+02,1.527661e+04
7.241409e+02,1.525324e+04
7.357117e+02,1.511352e+04
7.472825e+02,1.491204e+04
7.588533e+02,1.472877e+04
7.704241e+02,1.449023e+04
7.819949e+02,1.428774e+04
7.935657e+02,1.408860e+04
8.051365e+02,1.393080e+04
8.167073e+02,1.369979e+04
8.282781e+02,1.354767e+04
8.398489e+02,1.341003e+04
8.514197e+02,1.318533e+04
8.629905e+02,1.309393e+04
8.745613e+02,1.288821e+04
8.861321e+02,1.273605e+04
8.977029e+02,1.256456e+04
9.092737e+02,1.242133e+04
9.208445e+02,1.227086e+04
9.324153e+02,1.216299e+04
9.439861e+02,1.199269e+04
9.555569e+02,1.184303e+04
9.671277e+02,1.177685e+04
9.786985e+02,1.169163e+04
9.902693e+02,1.155284e+04
1.001840e+03,1.145672e+04
1.013411e+03,1.139001e+04
1.024982e+03,1.129915e+04
1.036552e+03,1.123220e+04
1.048123e+03,1.113764e+04
1.059694e+03,1.105350e+04
1.071265e+03,1.100808e+04
1.082836e+03,1.093568e+04
1.094406e+03,1.088701e+04
1.105977e+03,1.081055e+04
1.117548e+03,1.079860e+04
1.129119e+03,1.072992e+04
1.140690e+03,1.067531e+04
1.152261e+03,1.063992e+04
1.163831e+03,1.062238e+04
1.175402e+03,1.056454e+04
1.186973e+03,1.055880e+04
1.198544e+03,1.060100e+04
1.210115e+03,1.057622e+04
1.221685e+03,1.057344e+04
1.233256e+03,1.048774e+04
1.244827e+03,1.051015e+04
1.256398e+03,1.052002e+04
1.267969e+03,1.049325e+04
1.279539e+03,1.054215e+04
1.291110e+03,1.055904e+04
1.302681e+03,1.051934e+04
1.314252e+03,1.050397e+04
1.325823e+03,1.057562e+04
1.337393e+03,1.058794e+04
1.348964e+03,1.058252e+04
1.360535e+03,1.058107e+04
1.372106e+03,1.063192e+04
1.383677e+03,1.064393e+04
1.395247e+03,1.058320e+04
1.406818e+03,1.061023e+04
1.418389e+03,1.059278e+04
1.429960e+03,1.058075e+04
1.441531e+03,1.059273e+04
1.453101e+03,1.058798e+04
1.464672e+03,1.057003e+04
1.476243e+03,1.055273e+04
1.487814e+03,1.056102e+04
1.499385e+03,1.049335e+04
1.510955e+03,1.049987e+04
1.522526e+03,1.047631e+04
1.534097e+03,1.042464e+04
1.545668e+03,1.041444e+04
1.557239e+03,1.044265e+04
1.568809e+03,1.044667e+04
1.580380e+03,1.036593e+04
1.591951e+03,1.032046e+04
1.603522e+03,1.026850e+04
1.615093e+03,1.021530e+04
1.626663e+03,1.011638e+04
1.638234e+03,1.006286e+04
1.649805e+03,9.970402e+03
1.661376e+03,9.923442e+03
1.672947e+03,9.849151e+03
1.684517e+03,9.741107e+03
1.696088e+03,9.701203e+03
1.707659e+03,9.628228e+03
1.719230e+03,9.524493e+03
1.730801e+03,9.469360e+03
1.742371e+03,9.373556e+03
1.753942e+03,9.299116e+03
1.765513e+03,9.166573e+03
1.777084e+03,9.034554e+03
1.788655e+03,8.962192e+03
1.800225e+03,8.862842e+03
1.811796e+03,8.761062e+03
1.823367e+03,8.621049e+03
1.834938e+03,8.519452e+03
1.846509e+03,8.397162e+03
1.858079e+03,8.308396e+03
1.869650e+03,8.141539e+03
1.881221e+03,8.064478e+03
1.892792e+03,7.953413e+03
1.904363e+03,7.866052e+03
1.915933e+03,7.717418e+03
1.927504e+03,7.643054e+03
1.939075e+03,7.496652e+03
1.950646e+03,7.396745e+03
1.962217e+03,7.285119e+03
1.973787e+03,7.166590e+03
1.985358e+03,7.072662e+03
1.996929e+03,6.943925e+03
2.008500e+03,6.826071e+03
2.020071e+03,6.670393e+03
2.031641e+03,6.543740e+03
2.043212e+03,6.438337e+03
2.054783e+03,6.332673e+03
2.066354e+03,6.244161e+03
2.077925e+03,6.130996e+03
2.089496e+03,6.014367e+03
2.101066e+03,5.907072e+03
2.112637e+03,5.849644e+03
2.124208e+03,5.748391e+03
2.135779e+03,5.596102e+03
2.147350e+03,5.511461e+03
2.158920e+03,5.412057e+03
2.170491e+03,5.328306e+03
2.182062e+03,5.221691e+03
2.193633e+03,5.134403e+03
2.205204e+03,5.084401e+03
2.216774e+03,4.973019e+03
2.228345e+03,4.858405e+03
2.239916e+03,4.792653e+03
2.251487e+03,4.713286e+03
2.263058e+03,4.638636e+03
2.274628e+03,4.537817e+03
2.286199e+03,4.490282e+03
2.297770e+03,4.458905e+03
2.309341e+03,4.356862e+03
2.320912e+03,4.303518e+03
2.332482e+03,4.218279e+03
2.344053e+03,4.146271e+03
2.355624e+03,4.098149e+03
2.367195e+03,4.009873e+03
2.378766e+03,3.986310e+03
2.390336e+03,3.933467e+03
2.401907e+03,3.871990e+03
2.413478e+03,3.780547e+03
2.425049e+03,3.769625e+03
2.436620e+03,3.725289e+03
2.448190e+03,3.663126e+03
2.459761e+03,3.613443e+03
2.471332e+03,3.556894e+03
2.482903e+03,3.553295e+03
2.494474e+03,3.516357e+03
2.506044e+03,3.450012e+03
2.517615e+03,3.453266e+03
2.529186e+03,3.435790e+03
2.540757e+03,3.391616e+03
2.552328e+03,3.344882e+03
2.563898e+03,3.346929e+03
2.575469e+03,3.297871e+03
2.587040e+03,3.239058e+03
2.598611e+03,3.253218e+03
2.610182e+03,3.198615e+03
2.621752e+03,3.166057e+03
2.633323e+03,3.128683e+03
2.644894e+03,3.092884e+03
2.656465e+03,3.093948e+03
2.668036e+03,3.072952e+03
2.679606e+03,3.026516e+03
2.691177e+03,3.060185e+03
2.702748e+03,3.004332e+03
2.714319e+03,3.000476e+03
2.725890e+03,2.966438e+03
2.737460e+03,2.962899e+03
2.749031e+03,2.984791e+03
2.760602e+03,2.906763e+03
2.772173e+03,2.914586e+03
2.783744e+03,2.870224e+03
2.795314e+03,2.843761e+03
2.806885e+03,2.842591e+03
2.818456e+03,2.818766e+03
2.830027e+03,2.790951e+03
2.841598e+03,2.799294e+03
2.853168e+03,2.817247e+03
2.864739e+03,2.773917e+03
2.876310e+03,2.828887e+03
2.887881e+03,2.812706e+03
2.899452e+03,2.757751e+03
2.911022e+03,2.745328e+03
2.922593e+03,2.697737e+03
2.934164e+03,2.691939e+03
2.945735e+03,2.664333e+03
2.957306e+03,2.725420e+03
2.968876e+03,2.658817e+03
2.980447e+03,2.632570e+03
2.992018e+03,2.643490e+03
3.003589e+03,2.602281e+03
3.015160e+03,2.580758e+03
3.026730e+03,2.559511e+03
3.038301e+03,2.561143e+03
3.049872e+03,2.578021e+03
3.061443e+03,2.540135e+03
3.073014e+03,2.555483e+03
3.084584e+03,2.507208e+03
3.096155e+03,2.484990e+03
3.107726e+03,2.483643e+03
3.119297e+03,2.495056e+03
3.130868e+03,2.540138e+03
3.142438e+03,2.449065e+03
3.154009e+03,2.513949e+03
3.165580e+03,2.512450e+03
3.177151e+03,2.506364e+03
3.188722e+03,2.442897e+03
3.200292e+03,2.514688e+03
3.211863e+03,0.000000e+00
3.223434e+03,0.000000e+00
3.235005e+03,0.000000e+00
3.246576e+03,0.000000e+00
3.258146e+03,0.000000e+00
3.269717e+03,0.000000e+00
3.281288e+03,0.000000e+00
3.292859e+03,0.000000e+00
3.304430e+03,0.000000e+00
3.316000e+03,0.000000e+00
3.327571e+03,0.000000e+00
3.339142e+03,0.000000e+00
3.350713e+03,0.000000e+00
3.362284e+03,0.000000e+00
3.373854e+03,0.000000e+00
3.385425e+03,0.000000e+00
3.396996e+03,0.000000e+00
3.408567e+03,0.000000e+00
3.420138e+03,0.000000e+00
3.431708e+03,0.000000e+00
3.443279e+03,0.000000e+00
3.454850e+03,0.000000e+00
3.466421e+03,0.000000e+00
3.477992e+03,0.000000e+00
3.489563e+03,0.000000e+00
3.500169e+03,0.000000e+00

File: clear frag.CSV
9.931763e+01,0.000000e+00
1.108884e+02,0.000000e+00
1.224592e+02,0.000000e+00
1.340300e+02,0.000000e+00
1.456008e+02,0.000000e+00
1.571716e+02,0.000000e+00
1.687424e+02,0.000000e+00
1.803132e+02,0.000000e+00
1.918840e+02,0.000000e+00
2.034548e+02,1.003641e+04
2.150256e+02,1.009167e+04
2.265964e+02,1.015892e+04
2.381673e+02,1.026868e+04
2.497381e+02,1.030177e+04
2.613088e+02,1.036513e+04
2.728796e+02,1.042344e+04
2.844504e+02,1.050522e+04
2.960212e+02,1.053833e+04
3.075920e+02,1.059863e+04
3.191628e+02,1.063943e+04
3.307336e+02,1.070994e+04
3.423044e+02,1.077342e+04
3.538752e+02,1.081347e+04
3.654461e+02,1.085206e+04
3.770169e+02,1.093802e+04
3.885877e+02,1.095833e+04
4.001585e+02,1.089954e+04
4.117293e+02,1.092889e+04
4.233001e+02,1.089083e+04
4.348709e+02,1.090742e+04
4.464417e+02,1.085924e+04
4.580125e+02,1.087378e+04
4.695833e+02,1.083322e+04
4.811541e+02,1.081257e+04
4.927249e+02,1.076597e+04
5.042957e+02,1.077275e+04
5.158665e+02,1.080808e+04
5.274373e+02,1.074389e+04
5.390081e+02,1.066365e+04
5.505789e+02,1.068914e+04
5.621497e+02,1.062745e+04
5.737205e+02,1.061652e+04
5.852913e+02,1.056644e+04
5.968621e+02,1.049797e+04
6.084329e+02,1.050212e+04
6.200037e+02,1.043800e+04
6.315745e+02,1.037961e+04
6.431453e+02,1.030916e+04
6.547161e+02,1.027579e+04
6.662869e+02,1.023707e+04
6.778577e+02,1.017719e+04
6.894285e+02,1.012139e+04
7.009993e+02,1.006999e+04
7.125701e+02,1.004744e+04
7.241409e+02,9.968362e+03
7.357117e+02,9.882323e+03
7.472825e+02,9.844746e+03
7.588533e+02,9.815103e+03
7.704241e+02,9.713929e+03
7.819949e+02,9.705806e+03
7.935657e+02,9.639590e+03
8.051365e+02,9.529624e+03
8.167073e+02,9.473714e+03
8.282781e+02,9.435561e+03
8.398489e+02,9.383501e+03
8.514197e+02,9.351895e+03
8.629905e+02,9.262517e+03
8.745613e+02,9.178166e+03
8.861321e+02,9.158979e+03
8.977029e+02,9.041854e+03
9.092737e+02,8.975748e+03
9.208445e+02,8.871979e+03
9.324153e+02,8.858185e+03
9.439861e+02,8.755381e+03
9.555569e+02,8.684533e+03
9.671277e+02,8.631042e+03
9.786985e+02,8.581527e+03
9.902693e+02,8.481425e+03
1.001840e+03,8.426801e+03
1.013411e+03,8.381841e+03
1.024982e+03,8.323604e+03
1.036552e+03,8.268026e+03
1.048123e+03,8.206793e+03
1.059694e+03,8.147618e+03
1.071265e+03,8.119022e+03
1.082836e+03,8.026473e+03
1.094406e+03,7.981271e+03
1.105977e+03,7.916752e+03
1.117548e+03,7.877790e+03
1.129119e+03,7.761068e+03
1.140690e+03,7.687248e+03
1.152261e+03,7.669136e+03
1.163831e+03,7.582173e+03
1.175402e+03,7.491466e+03
1.186973e+03,7.410310e+03
1.198544e+03,7.419356e+03
1.210115e+03,7.347071e+03
1.221685e+03,7.270716e+03
1.233256e+03,7.196245e+03
1.244827e+03,7.180868e+03
1.256398e+03,7.087497e+03
1.267969e+03,7.022072e+03
1.279539e+03,6.966042e+03
1.291110e+03,6.939372e+03
1.302681e+03,6.881049e+03
1.314252e+03,6.808492e+03
1.325823e+03,6.757139e+03
1.337393e+03,6.749352e+03
1.348964e+03,6.682865e+03
1.360535e+03,6.580985e+03
1.372106e+03,6.561570e+03
1.383677e+03,6.478701e+03
1.395247e+03,6.419126e+03
1.406818e+03,6.378776e+03
1.418389e+03,6.336224e+03
1.429960e+03,6.278372e+03
1.441531e+03,6.237455e+03
1.453101e+03,6.172583e+03
1.464672e+03,6.118776e+03
1.476243e+03,6.074294e+03
1.487814e+03,5.988046e+03
1.499385e+03,5.952376e+03
1.510955e+03,5.894131e+03
1.522526e+03,5.861310e+03
1.534097e+03,5.791815e+03
1.545668e+03,5.740357e+03
1.557239e+03,5.700525e+03
1.568809e+03,5.674404e+03
1.580380e+03,5.631446e+03
1.591951e+03,5.556833e+03
1.603522e+03,5.508376e+03
1.615093e+03,5.481968e+03
1.626663e+03,5.413366e+03
1.638234e+03,5.372262e+03
1.649805e+03,5.317988e+03
1.661376e+03,5.267735e+03
1.672947e+03,5.254009e+03
1.684517e+03,5.158503e+03
1.696088e+03,5.124659e+03
1.707659e+03,5.103039e+03
1.719230e+03,5.022455e+03
1.730801e+03,4.982642e+03
1.742371e+03,4.922868e+03
1.753942e+03,4.896297e+03
1.765513e+03,4.836957e+03
1.777084e+03,4.804549e+03
1.788655e+03,4.756865e+03
1.800225e+03,4.706914e+03
1.811796e+03,4.627916e+03
1.823367e+03,4.625035e+03
1.834938e+03,4.567047e+03
1.846509e+03,4.517837e+03
1.858079e+03,4.469859e+03
1.869650e+03,4.397617e+03
1.881221e+03,4.358247e+03
1.892792e+03,4.335616e+03
1.904363e+03,4.256782e+03
1.915933e+03,4.238555e+03
1.927504e+03,4.176015e+03
1.939075e+03,4.135297e+03
1.950646e+03,4.070423e+03
1.962217e+03,4.038422e+03
1.973787e+03,3.992659e+03
1.985358e+03,3.945537e+03
1.996929e+03,3.913024e+03
2.008500e+03,3.876831e+03
2.020071e+03,3.823790e+03
2.031641e+03,3.777817e+03
2.043212e+03,3.729257e+03
2.054783e+03,3.697172e+03
2.066354e+03,3.644172e+03
2.077925e+03,3.576425e+03
2.089496e+03,3.549151e+03
2.101066e+03,3.508496e+03
2.112637e+03,3.442337e+03
2.124208e+03,3.426384e+03
2.135779e+03,3.405741e+03
2.147350e+03,3.327704e+03
2.158920e+03,3.279243e+03
2.170491e+03,3.279186e+03
2.182062e+03,3.197075e+03
2.193633e+03,3.166124e+03
2.205204e+03,3.148954e+03
2.216774e+03,3.060046e+03
2.228345e+03,3.006323e+03
2.239916e+03,2.972113e+03
2.251487e+03,2.952096e+03
2.263058e+03,2.879779e+03
2.274628e+03,2.877353e+03
2.286199e+03,2.841014e+03
2.297770e+03,2.787657e+03
2.309341e+03,2.718686e+03
2.320912e+03,2.703116e+03
2.332482e+03,2.692081e+03
2.344053e+03,2.636625e+03
2.355624e+03,2.591214e+03
2.367195e+03,2.551891e+03
2.378766e+03,2.528663e+03
2.390336e+03,2.492907e+03
2.401907e+03,2.437596e+03
2.413478e+03,2.413905e+03
2.425049e+03,2.373635e+03
2.436620e+03,2.364291e+03
2.448190e+03,2.305891e+03
2.459761e+03,2.297236e+03
2.471332e+03,2.259634e+03
2.482903e+03,2.240191e+03
2.494474e+03,2.214620e+03
2.506044e+03,2.194082e+03
2.517615e+03,2.175613e+03
2.529186e+03,2.118858e+03
2.540757e+03,2.093832e+03
2.552328e+03,2.064938e+03
2.563898e+03,2.052699e+03
2.575469e+03,2.029068e+03
2.587040e+03,1.987532e+03
2.598611e+03,1.977682e+03
2.610182e+03,1.936844e+03
2.621752e+03,1.935294e+03
2.633323e+03,1.898612e+03
2.644894e+03,1.879653e+03
2.656465e+03,1.857275e+03
2.668036e+03,1.843090e+03
2.679606e+03,1.832866e+03
2.691177e+03,1.797423e+03
2.702748e+03,1.772411e+03
2.714319e+03,1.751823e+03
2.725890e+03,1.720766e+03
2.737460e+03,1.721402e+03
2.749031e+03,1.713513e+03
2.760602e+03,1.684617e+03
2.772173e+03,1.657495e+03
2.783744e+03,1.631864e+03
2.795314e+03,1.605740e+03
2.806885e+03,1.635807e+03
2.818456e+03,1.606583e+03
2.830027e+03,1.616559e+03
2.841598e+03,1.582370e+03
2.853168e+03,1.580127e+03
2.864739e+03,1.571992e+03
2.876310e+03,1.548515e+03
2.887881e+03,1.561030e+03
2.899452e+03,1.541073e+03
2.911022e+03,1.505168e+03
2.922593e+03,1.513895e+03
2.934164e+03,1.496368e+03
2.945735e+03,1.438959e+03
2.957306e+03,1.493499e+03
2.968876e+03,1.454214e+03
2.980447e+03,1.423882e+03
2.992018e+03,1.391190e+03
3.003589e+03,1.365293e+03
3.015160e+03,1.371530e+03
3.026730e+03,1.368792e+03
3.038301e+03,1.340651e+03
3.049872e+03,1.347708e+03
3.061443e+03,1.381859e+03
3.073014e+03,1.349201e+03
3.084584e+03,1.326470e+03
3.096155e+03,1.337609e+03
3.107726e+03,1.329982e+03
3.119297e+03,1.320761e+03
3.130868e+03,1.313217e+03
3.142438e+03,1.320541e+03
3.154009e+03,1.336429e+03
3.165580e+03,1.336834e+03
3.177151e+03,1.274554e+03
3.188722e+03,1.294232e+03
3.200292e+03,1.331215e+03
3.211863e+03,0.000000e+00
3.223434e+03,0.000000e+00
3.235005e+03,0.000000e+00
3.246576e+03,0.000000e+00
3.258146e+03,0.000000e+00
3.269717e+03,0.000000e+00
3.281288e+03,0.000000e+00
3.292859e+03,0.000000e+00
3.304430e+03,0.000000e+00
3.316000e+03,0.000000e+00
3.327571e+03,0.000000e+00
3.339142e+03,0.000000e+00
3.350713e+03,0.000000e+00
3.362284e+03,0.000000e+00
3.373854e+03,0.000000e+00
3.385425e+03,0.000000e+00
3.396996e+03,0.000000e+00
3.408567e+03,0.000000e+00
3.420138e+03,0.000000e+00
3.431708e+03,0.000000e+00
3.443279e+03,0.000000e+00
3.454850e+03,0.000000e+00
3.466421e+03,0.000000e+00
3.477992e+03,0.000000e+00
3.489563e+03,0.000000e+00
3.500169e+03,0.000000e+00