Folder: Taff_Bargoed_microplastics_data/RAMAN_data/06022023_r1 (part 2)

File: black fibre4.CSV
1.995979e+02,4.577417e+03
2.102045e+02,4.592538e+03
2.208110e+02,4.591501e+03
2.314176e+02,4.624298e+03
2.420242e+02,4.618808e+03
2.526307e+02,4.663404e+03
2.632373e+02,4.678005e+03
2.738439e+02,4.685352e+03
2.844504e+02,4.716735e+03
2.950570e+02,4.716471e+03
3.056636e+02,4.705940e+03
3.162701e+02,4.697930e+03
3.268767e+02,4.722580e+03
3.374833e+02,4.712001e+03
3.480898e+02,4.734516e+03
3.586964e+02,4.747639e+03
3.693030e+02,4.725078e+03
3.799095e+02,4.760035e+03
3.905161e+02,4.725820e+03
4.011227e+02,4.709464e+03
4.117292e+02,4.689793e+03
4.223358e+02,4.717253e+03
4.329424e+02,4.713585e+03
4.435490e+02,4.691119e+03
4.541555e+02,4.693125e+03
4.647621e+02,4.663468e+03
4.753687e+02,4.653850e+03
4.859752e+02,4.687281e+03
4.965818e+02,4.665897e+03
5.071884e+02,4.631699e+03
5.177949e+02,4.615500e+03
5.284015e+02,4.598345e+03
5.390081e+02,4.583354e+03
5.496146e+02,4.554250e+03
5.602212e+02,4.567195e+03
5.708278e+02,4.497377e+03
5.814343e+02,4.507318e+03
5.920409e+02,4.494430e+03
6.026475e+02,4.468299e+03
6.132540e+02,4.451804e+03
6.238606e+02,4.438015e+03
6.344672e+02,4.419158e+03
6.450737e+02,4.380631e+03
6.556803e+02,4.362226e+03
6.662869e+02,4.332070e+03
6.768934e+02,4.312577e+03
6.875000e+02,4.318407e+03
6.981066e+02,4.283017e+03
7.087131e+02,4.242563e+03
7.193197e+02,4.227117e+03
7.299263e+02,4.200301e+03
7.405328e+02,4.166592e+03
7.511394e+02,4.146839e+03
7.617460e+02,4.126344e+03
7.723525e+02,4.087542e+03
7.829591e+02,4.079138e+03
7.935657e+02,4.055365e+03
8.041722e+02,4.020905e+03
8.147788e+02,4.001969e+03
8.253854e+02,3.983531e+03
8.359919e+02,3.966624e+03
8.465985e+02,3.948570e+03
8.572051e+02,3.908278e+03
8.678116e+02,3.860117e+03
8.784182e+02,3.858931e+03
8.890248e+02,3.849363e+03
8.996313e+02,3.822716e+03
9.102379e+02,3.778441e+03
9.208445e+02,3.748065e+03
9.314510e+02,3.718802e+03
9.420576e+02,3.688472e+03
9.526642e+02,3.683226e+03
9.632708e+02,3.656834e+03
9.738773e+02,3.626647e+03
9.844839e+02,3.606638e+03
9.950905e+02,3.593042e+03
1.005697e+03,3.561221e+03
1.016304e+03,3.537186e+03
1.026910e+03,3.504419e+03
1.037517e+03,3.487010e+03
1.048123e+03,3.448899e+03
1.058730e+03,3.436240e+03
1.069336e+03,3.427933e+03
1.079943e+03,3.396056e+03
1.090550e+03,3.428101e+03
1.101156e+03,3.367030e+03
1.111763e+03,3.339602e+03
1.122369e+03,3.357556e+03
1.132976e+03,3.309701e+03
1.143582e+03,3.273177e+03
1.154189e+03,3.275742e+03
1.164796e+03,3.233083e+03
1.175402e+03,3.201345e+03
1.186009e+03,3.184847e+03
1.196615e+03,3.182181e+03
1.207222e+03,3.146952e+03
1.217828e+03,3.118896e+03
1.228435e+03,3.103499e+03
1.239042e+03,3.078253e+03
1.249648e+03,3.048975e+03
1.260255e+03,3.033935e+03
1.270861e+03,3.018403e+03
1.281468e+03,3.030087e+03
1.292074e+03,3.000433e+03
1.302681e+03,2.959302e+03
1.313287e+03,2.944052e+03
1.323894e+03,2.947444e+03
1.334501e+03,2.941949e+03
1.345107e+03,2.901576e+03
1.355714e+03,2.907289e+03
1.366320e+03,2.886741e+03
1.376927e+03,2.868085e+03
1.387533e+03,2.828540e+03
1.398140e+03,2.810817e+03
1.408747e+03,2.796568e+03
1.419353e+03,2.776427e+03
1.429960e+03,2.741589e+03
1.440566e+03,2.727976e+03
1.451173e+03,2.685346e+03
1.461779e+03,2.693474e+03
1.472386e+03,2.681099e+03
1.482993e+03,2.642086e+03
1.493599e+03,2.651036e+03
1.504206e+03,2.625384e+03
1.514812e+03,2.586878e+03
1.525419e+03,2.594774e+03
1.536025e+03,2.549664e+03
1.546632e+03,2.556020e+03
1.557239e+03,2.535394e+03
1.567845e+03,2.514538e+03
1.578452e+03,2.502889e+03
1.589058e+03,2.512399e+03
1.599665e+03,2.470819e+03
1.610271e+03,2.438791e+03
1.620878e+03,2.417723e+03
1.631484e+03,2.406450e+03
1.642091e+03,2.370000e+03
1.652698e+03,2.344965e+03
1.663304e+03,2.355286e+03
1.673911e+03,2.305538e+03
1.684517e+03,2.295028e+03
1.695124e+03,2.295560e+03
1.705730e+03,2.285537e+03
1.716337e+03,2.269183e+03
1.726944e+03,2.236937e+03
1.737550e+03,2.213727e+03
1.748157e+03,2.188450e+03
1.758763e+03,2.176772e+03
1.769370e+03,2.147292e+03
1.779976e+03,2.146329e+03
1.790583e+03,2.104431e+03
1.801190e+03,2.110688e+03
1.811796e+03,2.094590e+03
1.822403e+03,2.069487e+03
1.833009e+03,2.051401e+03
1.843616e+03,2.041643e+03
1.854222e+03,2.009279e+03
1.864829e+03,2.000765e+03
1.875436e+03,1.980307e+03
1.886042e+03,1.947545e+03
1.896649e+03,1.934300e+03
1.907255e+03,1.914229e+03
1.917862e+03,1.887288e+03
1.928468e+03,1.866552e+03
1.939075e+03,1.869918e+03
1.949682e+03,1.831585e+03
1.960288e+03,1.819476e+03
1.970895e+03,1.800705e+03
1.981501e+03,1.802446e+03
1.992108e+03,1.763369e+03
2.002714e+03,1.751010e+03
2.013321e+03,1.727423e+03
2.023927e+03,1.714821e+03
2.034534e+03,1.679521e+03
2.045141e+03,1.673975e+03
2.055747e+03,1.631430e+03
2.066354e+03,1.633581e+03
2.076960e+03,1.619679e+03
2.087567e+03,1.606605e+03
2.098173e+03,1.572926e+03
2.108780e+03,1.561201e+03
2.119387e+03,1.537894e+03
2.129993e+03,1.520901e+03
2.140600e+03,1.511066e+03
2.151206e+03,1.504980e+03
2.161813e+03,1.481772e+03
2.172419e+03,1.452697e+03
2.183026e+03,1.431070e+03
2.193633e+03,1.435608e+03
2.204239e+03,1.402992e+03
2.214846e+03,1.384639e+03
2.225452e+03,1.354159e+03
2.236059e+03,1.360957e+03
2.246666e+03,1.327904e+03
2.257272e+03,1.313685e+03
2.267879e+03,1.295715e+03
2.278485e+03,1.271596e+03
2.289092e+03,1.272328e+03
2.299698e+03,1.260647e+03
2.310305e+03,1.234898e+03
2.320911e+03,1.243263e+03
2.331518e+03,1.206620e+03
2.342125e+03,1.188540e+03
2.352731e+03,1.183242e+03
2.363338e+03,1.168204e+03
2.373944e+03,1.165177e+03
2.384551e+03,1.139409e+03
2.395157e+03,1.112398e+03
2.405764e+03,1.115743e+03
2.416370e+03,1.112934e+03
2.426977e+03,1.072502e+03
2.437584e+03,1.057441e+03
2.448190e+03,1.055653e+03
2.458797e+03,1.055950e+03
2.469403e+03,1.036815e+03
2.480010e+03,1.051542e+03
2.490616e+03,1.002482e+03
2.501223e+03,9.997493e+02
2.511830e+03,1.003123e+03
2.522436e+03,9.960247e+02
2.533043e+03,9.648477e+02
2.543649e+03,9.730511e+02
2.554256e+03,9.466240e+02
2.564863e+03,9.335428e+02
2.575469e+03,9.485413e+02
2.586075e+03,9.287513e+02
2.596682e+03,9.256969e+02
2.607289e+03,9.270284e+02
2.617895e+03,8.977014e+02
2.628502e+03,9.026807e+02
2.639108e+03,8.932582e+02
2.649715e+03,8.581582e+02
2.660322e+03,8.493489e+02
2.670928e+03,8.545396e+02
2.681535e+03,8.497030e+02
2.692141e+03,8.388672e+02
2.702748e+03,8.365778e+02
2.713354e+03,8.019475e+02
2.723961e+03,8.160334e+02
2.734568e+03,8.178127e+02
2.745174e+03,7.995994e+02
2.755781e+03,7.864736e+02
2.766387e+03,7.685477e+02
2.776994e+03,7.747014e+02
2.787600e+03,7.596367e+02
2.798207e+03,7.582908e+02
2.808813e+03,7.438778e+02
2.819420e+03,7.625594e+02
2.830027e+03,7.636563e+02
2.840633e+03,7.411804e+02
2.851240e+03,7.458567e+02
2.861846e+03,7.548973e+02
2.872453e+03,7.505673e+02
2.883059e+03,7.714822e+02
2.893666e+03,7.789758e+02
2.904273e+03,7.593473e+02
2.914879e+03,7.564382e+02
2.925486e+03,7.355016e+02
2.936092e+03,7.096565e+02
2.946699e+03,7.126662e+02
2.957305e+03,7.385026e+02
2.967912e+03,6.961916e+02
2.978519e+03,6.774285e+02
2.989125e+03,6.877012e+02
2.999732e+03,6.544935e+02
3.010338e+03,6.626694e+02
3.020945e+03,6.650334e+02
3.031552e+03,6.334775e+02
3.042158e+03,6.386363e+02
3.052764e+03,6.378146e+02
3.063371e+03,6.575261e+02
3.073978e+03,6.381872e+02
3.084584e+03,6.424926e+02
3.095191e+03,6.097281e+02
3.105797e+03,6.156465e+02
3.116404e+03,6.434110e+02
3.127010e+03,6.472159e+02
3.137617e+03,6.533486e+02
3.148224e+03,6.202209e+02
3.158830e+03,6.484042e+02
3.169437e+03,6.639230e+02
3.180043e+03,6.329445e+02
3.190650e+03,5.963418e+02
3.200292e+03,6.873684e+02

File: black fibre5.CSV
1.995979e+02,3.770427e+03
2.102045e+02,3.798711e+03
2.208110e+02,3.819707e+03
2.314176e+02,3.832377e+03
2.420242e+02,3.835661e+03
2.526307e+02,3.874145e+03
2.632373e+02,3.880926e+03
2.738439e+02,3.891693e+03
2.844504e+02,3.908234e+03
2.950570e+02,3.907781e+03
3.056636e+02,3.908217e+03
3.162701e+02,3.904536e+03
3.268767e+02,3.913953e+03
3.374833e+02,3.920123e+03
3.480898e+02,3.945845e+03
3.586964e+02,3.944417e+03
3.693030e+02,3.917975e+03
3.799095e+02,3.948125e+03
3.905161e+02,3.920719e+03
4.011227e+02,3.931359e+03
4.117292e+02,3.912719e+03
4.223358e+02,3.901841e+03
4.329424e+02,3.914133e+03
4.435490e+02,3.914083e+03
4.541555e+02,3.873996e+03
4.647621e+02,3.849767e+03
4.753687e+02,3.853361e+03
4.859752e+02,3.846476e+03
4.965818e+02,3.848665e+03
5.071884e+02,3.829754e+03
5.177949e+02,3.836552e+03
5.284015e+02,3.811774e+03
5.390081e+02,3.769435e+03
5.496146e+02,3.773405e+03
5.602212e+02,3.758932e+03
5.708278e+02,3.727868e+03
5.814343e+02,3.722692e+03
5.920409e+02,3.707518e+03
6.026475e+02,3.666283e+03
6.132540e+02,3.658216e+03
6.238606e+02,3.638281e+03
6.344672e+02,3.624447e+03
6.450737e+02,3.593619e+03
6.556803e+02,3.588034e+03
6.662869e+02,3.579116e+03
6.768934e+02,3.549081e+03
6.875000e+02,3.528215e+03
6.981066e+02,3.511459e+03
7.087131e+02,3.464784e+03
7.193197e+02,3.450737e+03
7.299263e+02,3.415704e+03
7.405328e+02,3.408796e+03
7.511394e+02,3.373222e+03
7.617460e+02,3.367859e+03
7.723525e+02,3.331819e+03
7.829591e+02,3.317589e+03
7.935657e+02,3.308874e+03
8.041722e+02,3.264056e+03
8.147788e+02,3.256378e+03
8.253854e+02,3.218705e+03
8.359919e+02,3.208044e+03
8.465985e+02,3.166618e+03
8.572051e+02,3.162165e+03
8.678116e+02,3.131882e+03
8.784182e+02,3.117331e+03
8.890248e+02,3.124930e+03
8.996313e+02,3.067394e+03
9.102379e+02,3.042902e+03
9.208445e+02,3.005654e+03
9.314510e+02,2.986414e+03
9.420576e+02,2.973964e+03
9.526642e+02,2.940299e+03
9.632708e+02,2.929496e+03
9.738773e+02,2.904458e+03
9.844839e+02,2.878269e+03
9.950905e+02,2.877407e+03
1.005697e+03,2.839365e+03
1.016304e+03,2.808811e+03
1.026910e+03,2.796463e+03
1.037517e+03,2.781665e+03
1.048123e+03,2.754694e+03
1.058730e+03,2.746826e+03
1.069336e+03,2.726379e+03
1.079943e+03,2.702142e+03
1.090550e+03,2.729719e+03
1.101156e+03,2.676361e+03
1.111763e+03,2.662862e+03
1.122369e+03,2.648649e+03
1.132976e+03,2.620871e+03
1.143582e+03,2.608034e+03
1.154189e+03,2.593797e+03
1.164796e+03,2.562308e+03
1.175402e+03,2.527246e+03
1.186009e+03,2.502098e+03
1.196615e+03,2.510939e+03
1.207222e+03,2.470185e+03
1.217828e+03,2.474243e+03
1.228435e+03,2.457378e+03
1.239042e+03,2.449970e+03
1.249648e+03,2.432205e+03
1.260255e+03,2.420083e+03
1.270861e+03,2.407405e+03
1.281468e+03,2.382251e+03
1.292074e+03,2.377974e+03
1.302681e+03,2.352884e+03
1.313287e+03,2.336771e+03
1.323894e+03,2.337938e+03
1.334501e+03,2.332389e+03
1.345107e+03,2.298722e+03
1.355714e+03,2.271736e+03
1.366320e+03,2.288753e+03
1.376927e+03,2.256026e+03
1.387533e+03,2.238915e+03
1.398140e+03,2.238046e+03
1.408747e+03,2.217295e+03
1.419353e+03,2.191650e+03
1.429960e+03,2.176129e+03
1.440566e+03,2.147153e+03
1.451173e+03,2.140650e+03
1.461779e+03,2.132493e+03
1.472386e+03,2.112810e+03
1.482993e+03,2.093570e+03
1.493599e+03,2.080373e+03
1.504206e+03,2.067532e+03
1.514812e+03,2.041626e+03
1.525419e+03,2.036265e+03
1.536025e+03,2.024053e+03
1.546632e+03,2.002865e+03
1.557239e+03,1.989449e+03
1.567845e+03,2.005161e+03
1.578452e+03,1.973443e+03
1.589058e+03,1.961413e+03
1.599665e+03,1.941094e+03
1.610271e+03,1.930917e+03
1.620878e+03,1.914734e+03
1.631484e+03,1.908524e+03
1.642091e+03,1.893454e+03
1.652698e+03,1.864882e+03
1.663304e+03,1.860819e+03
1.673911e+03,1.837762e+03
1.684517e+03,1.808450e+03
1.695124e+03,1.806776e+03
1.705730e+03,1.804935e+03
1.716337e+03,1.768398e+03
1.726944e+03,1.751731e+03
1.737550e+03,1.747148e+03
1.748157e+03,1.730750e+03
1.758763e+03,1.720530e+03
1.769370e+03,1.719111e+03
1.779976e+03,1.680955e+03
1.790583e+03,1.673028e+03
1.801190e+03,1.663946e+03
1.811796e+03,1.637197e+03
1.822403e+03,1.614447e+03
1.833009e+03,1.616067e+03
1.843616e+03,1.609478e+03
1.854222e+03,1.578208e+03
1.864829e+03,1.565994e+03
1.875436e+03,1.568418e+03
1.886042e+03,1.527652e+03
1.896649e+03,1.521935e+03
1.907255e+03,1.524714e+03
1.917862e+03,1.484791e+03
1.928468e+03,1.479040e+03
1.939075e+03,1.459840e+03
1.949682e+03,1.427040e+03
1.960288e+03,1.444082e+03
1.970895e+03,1.435217e+03
1.981501e+03,1.406250e+03
1.992108e+03,1.388156e+03
2.002714e+03,1.380043e+03
2.013321e+03,1.370568e+03
2.023927e+03,1.332465e+03
2.034534e+03,1.323492e+03
2.045141e+03,1.309168e+03
2.055747e+03,1.301539e+03
2.066354e+03,1.277182e+03
2.076960e+03,1.263463e+03
2.087567e+03,1.246382e+03
2.098173e+03,1.265768e+03
2.108780e+03,1.239028e+03
2.119387e+03,1.193239e+03
2.129993e+03,1.190369e+03
2.140600e+03,1.172235e+03
2.151206e+03,1.168083e+03
2.161813e+03,1.154899e+03
2.172419e+03,1.125800e+03
2.183026e+03,1.112577e+03
2.193633e+03,1.102333e+03
2.204239e+03,1.090526e+03
2.214846e+03,1.071274e+03
2.225452e+03,1.051839e+03
2.236059e+03,1.057825e+03
2.246666e+03,1.034566e+03
2.257272e+03,1.031293e+03
2.267879e+03,1.002356e+03
2.278485e+03,1.012042e+03
2.289092e+03,9.723708e+02
2.299698e+03,9.745752e+02
2.310305e+03,9.687208e+02
2.320911e+03,9.477480e+02
2.331518e+03,9.426484e+02
2.342125e+03,9.269130e+02
2.352731e+03,9.089352e+02
2.363338e+03,9.154405e+02
2.373944e+03,8.990192e+02
2.384551e+03,8.708956e+02
2.395157e+03,8.609203e+02
2.405764e+03,8.616578e+02
2.416370e+03,8.420123e+02
2.426977e+03,8.356017e+02
2.437584e+03,8.228568e+02
2.448190e+03,8.121262e+02
2.458797e+03,8.055630e+02
2.469403e+03,8.081234e+02
2.480010e+03,7.925225e+02
2.490616e+03,7.836889e+02
2.501223e+03,7.764229e+02
2.511830e+03,7.736154e+02
2.522436e+03,7.505157e+02
2.533043e+03,7.458945e+02
2.543649e+03,7.386965e+02
2.554256e+03,7.591510e+02
2.564863e+03,7.258454e+02
2.575469e+03,7.160676e+02
2.586075e+03,6.997441e+02
2.596682e+03,7.111297e+02
2.607289e+03,6.919754e+02
2.617895e+03,6.936564e+02
2.628502e+03,6.980918e+02
2.639108e+03,6.760566e+02
2.649715e+03,6.541494e+02
2.660322e+03,6.731563e+02
2.670928e+03,6.698840e+02
2.681535e+03,6.362054e+02
2.692141e+03,6.262745e+02
2.702748e+03,6.350430e+02
2.713354e+03,6.397615e+02
2.723961e+03,6.276641e+02
2.734568e+03,6.262952e+02
2.745174e+03,6.245740e+02
2.755781e+03,6.194681e+02
2.766387e+03,6.213505e+02
2.776994e+03,5.970254e+02
2.787600e+03,6.067179e+02
2.798207e+03,5.738392e+02
2.808813e+03,5.802463e+02
2.819420e+03,5.795822e+02
2.830027e+03,6.066332e+02
2.840633e+03,5.755305e+02
2.851240e+03,5.973073e+02
2.861846e+03,5.814257e+02
2.872453e+03,5.852627e+02
2.883059e+03,5.980807e+02
2.893666e+03,6.156027e+02
2.904273e+03,5.894703e+02
2.914879e+03,5.781864e+02
2.925486e+03,5.661439e+02
2.936092e+03,5.644835e+02
2.946699e+03,5.703395e+02
2.957305e+03,6.213559e+02
2.967912e+03,5.467401e+02
2.978519e+03,5.130660e+02
2.989125e+03,5.432928e+02
2.999732e+03,5.192671e+02
3.010338e+03,5.464226e+02
3.020945e+03,5.251780e+02
3.031552e+03,5.046379e+02
3.042158e+03,5.615372e+02
3.052764e+03,5.430873e+02
3.063371e+03,5.135568e+02
3.073978e+03,5.005291e+02
3.084584e+03,5.115497e+02
3.095191e+03,5.250629e+02
3.105797e+03,4.937303e+02
3.116404e+03,5.172070e+02
3.127010e+03,5.252475e+02
3.137617e+03,5.448919e+02
3.148224e+03,5.242931e+02
3.158830e+03,4.984065e+02
3.169437e+03,4.902064e+02
3.180043e+03,5.035275e+02
3.190650e+03,5.092563e+02
3.200292e+03,5.335317e+02

File: black fibre6.CSV
1.995979e+02,3.806534e+03
2.102045e+02,3.834120e+03
2.208110e+02,3.870364e+03
2.314176e+02,3.872775e+03
2.420242e+02,3.878218e+03
2.526307e+02,3.901491e+03
2.632373e+02,3.922023e+03
2.738439e+02,3.918258e+03
2.844504e+02,3.923608e+03
2.950570e+02,3.960185e+03
3.056636e+02,3.952994e+03
3.162701e+02,3.944871e+03
3.268767e+02,3.967291e+03
3.374833e+02,3.947240e+03
3.480898e+02,3.963701e+03
3.586964e+02,3.964843e+03
3.693030e+02,3.962419e+03
3.799095e+02,3.991645e+03
3.905161e+02,3.946282e+03
4.011227e+02,3.960058e+03
4.117292e+02,3.923394e+03
4.223358e+02,3.943831e+03
4.329424e+02,3.939171e+03
4.435490e+02,3.904688e+03
4.541555e+02,3.911258e+03
4.647621e+02,3.902466e+03
4.753687e+02,3.885201e+03
4.859752e+02,3.895855e+03
4.965818e+02,3.851562e+03
5.071884e+02,3.844409e+03
5.177949e+02,3.835425e+03
5.284015e+02,3.815282e+03
5.390081e+02,3.789367e+03
5.496146e+02,3.772292e+03
5.602212e+02,3.748044e+03
5.708278e+02,3.728651e+03
5.814343e+02,3.725425e+03
5.920409e+02,3.714114e+03
6.026475e+02,3.709057e+03
6.132540e+02,3.676114e+03
6.238606e+02,3.674101e+03
6.344672e+02,3.625680e+03
6.450737e+02,3.623448e+03
6.556803e+02,3.598682e+03
6.662869e+02,3.575637e+03
6.768934e+02,3.550494e+03
6.875000e+02,3.517865e+03
6.981066e+02,3.507121e+03
7.087131e+02,3.461392e+03
7.193197e+02,3.457063e+03
7.299263e+02,3.423762e+03
7.405328e+02,3.414265e+03
7.511394e+02,3.391127e+03
7.617460e+02,3.358200e+03
7.723525e+02,3.333730e+03
7.829591e+02,3.309297e+03
7.935657e+02,3.283887e+03
8.041722e+02,3.263010e+03
8.147788e+02,3.232333e+03
8.253854e+02,3.221285e+03
8.359919e+02,3.200972e+03
8.465985e+02,3.171940e+03
8.572051e+02,3.143073e+03
8.678116e+02,3.110539e+03
8.784182e+02,3.109734e+03
8.890248e+02,3.081932e+03
8.996313e+02,3.053536e+03
9.102379e+02,3.028501e+03
9.208445e+02,2.997210e+03
9.314510e+02,2.986083e+03
9.420576e+02,2.955739e+03
9.526642e+02,2.916003e+03
9.632708e+02,2.903097e+03
9.738773e+02,2.879929e+03
9.844839e+02,2.857837e+03
9.950905e+02,2.847793e+03
1.005697e+03,2.801977e+03
1.016304e+03,2.791585e+03
1.026910e+03,2.779519e+03
1.037517e+03,2.764429e+03
1.048123e+03,2.721545e+03
1.058730e+03,2.722157e+03
1.069336e+03,2.710146e+03
1.079943e+03,2.684121e+03
1.090550e+03,2.685244e+03
1.101156e+03,2.657801e+03
1.111763e+03,2.650751e+03
1.122369e+03,2.627011e+03
1.132976e+03,2.599380e+03
1.143582e+03,2.569603e+03
1.154189e+03,2.568325e+03
1.164796e+03,2.526996e+03
1.175402e+03,2.514761e+03
1.186009e+03,2.487293e+03
1.196615e+03,2.491481e+03
1.207222e+03,2.451317e+03
1.217828e+03,2.462800e+03
1.228435e+03,2.436474e+03
1.239042e+03,2.425347e+03
1.249648e+03,2.414509e+03
1.260255e+03,2.401411e+03
1.270861e+03,2.378689e+03
1.281468e+03,2.368222e+03
1.292074e+03,2.346066e+03
1.302681e+03,2.335311e+03
1.313287e+03,2.311697e+03
1.323894e+03,2.313728e+03
1.334501e+03,2.301845e+03
1.345107e+03,2.266713e+03
1.355714e+03,2.259931e+03
1.366320e+03,2.243946e+03
1.376927e+03,2.228837e+03
1.387533e+03,2.219806e+03
1.398140e+03,2.226095e+03
1.408747e+03,2.202912e+03
1.419353e+03,2.168775e+03
1.429960e+03,2.158229e+03
1.440566e+03,2.132534e+03
1.451173e+03,2.126708e+03
1.461779e+03,2.106810e+03
1.472386e+03,2.095138e+03
1.482993e+03,2.079619e+03
1.493599e+03,2.054470e+03
1.504206e+03,2.044881e+03
1.514812e+03,2.036906e+03
1.525419e+03,2.025807e+03
1.536025e+03,1.997661e+03
1.546632e+03,1.987865e+03
1.557239e+03,1.983872e+03
1.567845e+03,1.981958e+03
1.578452e+03,1.966635e+03
1.589058e+03,1.941621e+03
1.599665e+03,1.918604e+03
1.610271e+03,1.896012e+03
1.620878e+03,1.894406e+03
1.631484e+03,1.886325e+03
1.642091e+03,1.863912e+03
1.652698e+03,1.844244e+03
1.663304e+03,1.826412e+03
1.673911e+03,1.820049e+03
1.684517e+03,1.806067e+03
1.695124e+03,1.775202e+03
1.705730e+03,1.779478e+03
1.716337e+03,1.740408e+03
1.726944e+03,1.741930e+03
1.737550e+03,1.722916e+03
1.748157e+03,1.707649e+03
1.758763e+03,1.687993e+03
1.769370e+03,1.692088e+03
1.779976e+03,1.651890e+03
1.790583e+03,1.634172e+03
1.801190e+03,1.637701e+03
1.811796e+03,1.619408e+03
1.822403e+03,1.578422e+03
1.833009e+03,1.583555e+03
1.843616e+03,1.582759e+03
1.854222e+03,1.557953e+03
1.864829e+03,1.554976e+03
1.875436e+03,1.533770e+03
1.886042e+03,1.499863e+03
1.896649e+03,1.495681e+03
1.907255e+03,1.473027e+03
1.917862e+03,1.457295e+03
1.928468e+03,1.460412e+03
1.939075e+03,1.424546e+03
1.949682e+03,1.390906e+03
1.960288e+03,1.397151e+03
1.970895e+03,1.382315e+03
1.981501e+03,1.351674e+03
1.992108e+03,1.346034e+03
2.002714e+03,1.336272e+03
2.013321e+03,1.330109e+03
2.023927e+03,1.284676e+03
2.034534e+03,1.306199e+03
2.045141e+03,1.272768e+03
2.055747e+03,1.245754e+03
2.066354e+03,1.235295e+03
2.076960e+03,1.232572e+03
2.087567e+03,1.212427e+03
2.098173e+03,1.196882e+03
2.108780e+03,1.183606e+03
2.119387e+03,1.181304e+03
2.129993e+03,1.149348e+03
2.140600e+03,1.137478e+03
2.151206e+03,1.125491e+03
2.161813e+03,1.109269e+03
2.172419e+03,1.098102e+03
2.183026e+03,1.081376e+03
2.193633e+03,1.070162e+03
2.204239e+03,1.059240e+03
2.214846e+03,1.034801e+03
2.225452e+03,1.018092e+03
2.236059e+03,1.032900e+03
2.246666e+03,9.969601e+02
2.257272e+03,9.840725e+02
2.267879e+03,9.716992e+02
2.278485e+03,9.613195e+02
2.289092e+03,9.386281e+02
2.299698e+03,9.374793e+02
2.310305e+03,9.292811e+02
2.320911e+03,9.100933e+02
2.331518e+03,9.022180e+02
2.342125e+03,8.914222e+02
2.352731e+03,8.695873e+02
2.363338e+03,8.685841e+02
2.373944e+03,8.526417e+02
2.384551e+03,8.443849e+02
2.395157e+03,8.372331e+02
2.405764e+03,8.383718e+02
2.416370e+03,8.137900e+02
2.426977e+03,8.119463e+02
2.437584e+03,7.953124e+02
2.448190e+03,7.760476e+02
2.458797e+03,7.578482e+02
2.469403e+03,7.524417e+02
2.480010e+03,7.514275e+02
2.490616e+03,7.529870e+02
2.501223e+03,7.419547e+02
2.511830e+03,7.316254e+02
2.522436e+03,7.376599e+02
2.533043e+03,7.164569e+02
2.543649e+03,6.991286e+02
2.554256e+03,7.066228e+02
2.564863e+03,7.001718e+02
2.575469e+03,6.881204e+02
2.586075e+03,6.709753e+02
2.596682e+03,6.528848e+02
2.607289e+03,6.466233e+02
2.617895e+03,6.508354e+02
2.628502e+03,6.451190e+02
2.639108e+03,6.455510e+02
2.649715e+03,6.561415e+02
2.660322e+03,6.280635e+02
2.670928e+03,6.358002e+02
2.681535e+03,6.208652e+02
2.692141e+03,6.135369e+02
2.702748e+03,6.068497e+02
2.713354e+03,5.921052e+02
2.723961e+03,6.076418e+02
2.734568e+03,5.926278e+02
2.745174e+03,5.792937e+02
2.755781e+03,5.968945e+02
2.766387e+03,5.673548e+02
2.776994e+03,5.655214e+02
2.787600e+03,5.804868e+02
2.798207e+03,5.791539e+02
2.808813e+03,5.691035e+02
2.819420e+03,5.529088e+02
2.830027e+03,5.735711e+02
2.840633e+03,5.432456e+02
2.851240e+03,5.442862e+02
2.861846e+03,5.423179e+02
2.872453e+03,5.604630e+02
2.883059e+03,5.811409e+02
2.893666e+03,5.682877e+02
2.904273e+03,5.674381e+02
2.914879e+03,5.533364e+02
2.925486e+03,5.461398e+02
2.936092e+03,5.315856e+02
2.946699e+03,5.410170e+02
2.957305e+03,5.894180e+02
2.967912e+03,5.210865e+02
2.978519e+03,5.155646e+02
2.989125e+03,4.877938e+02
2.999732e+03,4.733929e+02
3.010338e+03,4.995001e+02
3.020945e+03,5.010206e+02
3.031552e+03,4.803622e+02
3.042158e+03,5.061333e+02
3.052764e+03,4.731995e+02
3.063371e+03,4.958020e+02
3.073978e+03,4.879027e+02
3.084584e+03,4.899409e+02
3.095191e+03,4.986012e+02
3.105797e+03,4.737229e+02
3.116404e+03,4.951432e+02
3.127010e+03,4.972831e+02
3.137617e+03,4.950528e+02
3.148224e+03,5.173404e+02
3.158830e+03,5.040532e+02
3.169437e+03,4.795255e+02
3.180043e+03,4.996666e+02
3.190650e+03,5.305414e+02
3.200292e+03,5.409940e+02