Folder: Taff_Bargoed_microplastics_data/RAMAN_data/06022023_r1 (part 7)

File: blue frag5.CSV
1.995979e+02,3.259844e+03
2.102045e+02,3.270079e+03
2.208110e+02,3.274303e+03
2.314176e+02,3.285480e+03
2.420242e+02,3.274498e+03
2.526307e+02,3.286058e+03
2.632373e+02,3.306863e+03
2.738439e+02,3.291880e+03
2.844504e+02,3.321432e+03
2.950570e+02,3.297972e+03
3.056636e+02,3.301452e+03
3.162701e+02,3.299159e+03
3.268767e+02,3.308913e+03
3.374833e+02,3.300343e+03
3.480898e+02,3.322636e+03
3.586964e+02,3.300516e+03
3.693030e+02,3.300789e+03
3.799095e+02,3.304353e+03
3.905161e+02,3.290605e+03
4.011227e+02,3.274277e+03
4.117292e+02,3.276787e+03
4.223358e+02,3.273554e+03
4.329424e+02,3.272050e+03
4.435490e+02,3.251486e+03
4.541555e+02,3.255094e+03
4.647621e+02,3.240690e+03
4.753687e+02,3.228529e+03
4.859752e+02,3.225450e+03
4.965818e+02,3.224874e+03
5.071884e+02,3.208937e+03
5.177949e+02,3.222166e+03
5.284015e+02,3.210985e+03
5.390081e+02,3.191380e+03
5.496146e+02,3.195583e+03
5.602212e+02,3.174338e+03
5.708278e+02,3.156175e+03
5.814343e+02,3.162791e+03
5.920409e+02,3.164196e+03
6.026475e+02,3.139277e+03
6.132540e+02,3.123383e+03
6.238606e+02,3.129056e+03
6.344672e+02,3.117090e+03
6.450737e+02,3.103856e+03
6.556803e+02,3.078585e+03
6.662869e+02,3.088633e+03
6.768934e+02,3.183323e+03
6.875000e+02,3.123675e+03
6.981066e+02,3.083379e+03
7.087131e+02,3.049098e+03
7.193197e+02,3.057427e+03
7.299263e+02,3.061521e+03
7.405328e+02,3.097244e+03
7.511394e+02,3.005425e+03
7.617460e+02,3.005010e+03
7.723525e+02,3.055672e+03
7.829591e+02,2.969712e+03
7.935657e+02,2.948961e+03
8.041722e+02,2.951039e+03
8.147788e+02,2.925750e+03
8.253854e+02,2.915542e+03
8.359919e+02,2.886058e+03
8.465985e+02,2.882629e+03
8.572051e+02,2.866098e+03
8.678116e+02,2.839987e+03
8.784182e+02,2.853043e+03
8.890248e+02,2.828753e+03
8.996313e+02,2.819235e+03
9.102379e+02,2.794068e+03
9.208445e+02,2.773443e+03
9.314510e+02,2.768913e+03
9.420576e+02,2.758531e+03
9.526642e+02,2.755284e+03
9.632708e+02,2.761405e+03
9.738773e+02,2.728035e+03
9.844839e+02,2.692663e+03
9.950905e+02,2.713749e+03
1.005697e+03,2.677871e+03
1.016304e+03,2.673702e+03
1.026910e+03,2.670748e+03
1.037517e+03,2.662922e+03
1.048123e+03,2.667531e+03
1.058730e+03,2.655220e+03
1.069336e+03,2.635775e+03
1.079943e+03,2.651809e+03
1.090550e+03,2.643499e+03
1.101156e+03,2.637648e+03
1.111763e+03,2.609421e+03
1.122369e+03,2.607641e+03
1.132976e+03,2.599434e+03
1.143582e+03,2.596652e+03
1.154189e+03,2.572110e+03
1.164796e+03,2.571316e+03
1.175402e+03,2.558736e+03
1.186009e+03,2.572906e+03
1.196615e+03,2.608676e+03
1.207222e+03,2.683780e+03
1.217828e+03,2.560918e+03
1.228435e+03,2.535684e+03
1.239042e+03,2.525948e+03
1.249648e+03,2.514225e+03
1.260255e+03,2.546042e+03
1.270861e+03,2.637400e+03
1.281468e+03,2.658542e+03
1.292074e+03,2.578850e+03
1.302681e+03,2.533167e+03
1.313287e+03,2.529130e+03
1.323894e+03,2.550410e+03
1.334501e+03,2.616969e+03
1.345107e+03,2.529397e+03
1.355714e+03,2.502444e+03
1.366320e+03,2.471719e+03
1.376927e+03,2.455326e+03
1.387533e+03,2.442754e+03
1.398140e+03,2.444539e+03
1.408747e+03,2.424761e+03
1.419353e+03,2.426585e+03
1.429960e+03,2.417943e+03
1.440566e+03,2.432956e+03
1.451173e+03,2.407885e+03
1.461779e+03,2.384666e+03
1.472386e+03,2.395658e+03
1.482993e+03,2.392714e+03
1.493599e+03,2.396698e+03
1.504206e+03,2.408088e+03
1.514812e+03,2.441691e+03
1.525419e+03,2.669765e+03
1.536025e+03,2.641150e+03
1.546632e+03,2.459552e+03
1.557239e+03,2.383465e+03
1.567845e+03,2.367146e+03
1.578452e+03,2.329019e+03
1.589058e+03,2.318578e+03
1.599665e+03,2.313239e+03
1.610271e+03,2.294442e+03
1.620878e+03,2.310925e+03
1.631484e+03,2.290183e+03
1.642091e+03,2.253979e+03
1.652698e+03,2.268147e+03
1.663304e+03,2.241454e+03
1.673911e+03,2.238358e+03
1.684517e+03,2.225083e+03
1.695124e+03,2.217258e+03
1.705730e+03,2.241657e+03
1.716337e+03,2.218443e+03
1.726944e+03,2.201468e+03
1.737550e+03,2.213462e+03
1.748157e+03,2.200749e+03
1.758763e+03,2.197203e+03
1.769370e+03,2.197259e+03
1.779976e+03,2.195075e+03
1.790583e+03,2.186269e+03
1.801190e+03,2.192465e+03
1.811796e+03,2.191766e+03
1.822403e+03,2.186552e+03
1.833009e+03,2.173748e+03
1.843616e+03,2.176140e+03
1.854222e+03,2.165507e+03
1.864829e+03,2.156568e+03
1.875436e+03,2.168621e+03
1.886042e+03,2.154221e+03
1.896649e+03,2.161150e+03
1.907255e+03,2.149102e+03
1.917862e+03,2.128655e+03
1.928468e+03,2.128896e+03
1.939075e+03,2.142366e+03
1.949682e+03,2.136596e+03
1.960288e+03,2.113487e+03
1.970895e+03,2.139347e+03
1.981501e+03,2.116741e+03
1.992108e+03,2.108741e+03
2.002714e+03,2.100904e+03
2.013321e+03,2.110866e+03
2.023927e+03,2.115583e+03
2.034534e+03,2.098533e+03
2.045141e+03,2.081284e+03
2.055747e+03,2.063906e+03
2.066354e+03,2.092971e+03
2.076960e+03,2.081187e+03
2.087567e+03,2.076968e+03
2.098173e+03,2.068123e+03
2.108780e+03,2.061114e+03
2.119387e+03,2.053563e+03
2.129993e+03,2.041041e+03
2.140600e+03,2.048815e+03
2.151206e+03,2.037431e+03
2.161813e+03,2.035699e+03
2.172419e+03,2.018325e+03
2.183026e+03,2.010526e+03
2.193633e+03,2.017151e+03
2.204239e+03,2.010741e+03
2.214846e+03,2.007692e+03
2.225452e+03,1.998510e+03
2.236059e+03,1.981110e+03
2.246666e+03,1.952304e+03
2.257272e+03,1.967391e+03
2.267879e+03,1.975279e+03
2.278485e+03,1.952404e+03
2.289092e+03,1.933494e+03
2.299698e+03,1.937809e+03
2.310305e+03,1.915750e+03
2.320911e+03,1.929599e+03
2.331518e+03,1.903231e+03
2.342125e+03,1.893891e+03
2.352731e+03,1.876528e+03
2.363338e+03,1.858131e+03
2.373944e+03,1.862074e+03
2.384551e+03,1.854229e+03
2.395157e+03,1.848567e+03
2.405764e+03,1.842423e+03
2.416370e+03,1.826798e+03
2.426977e+03,1.833831e+03
2.437584e+03,1.804785e+03
2.448190e+03,1.813439e+03
2.458797e+03,1.813546e+03
2.469403e+03,1.779402e+03
2.480010e+03,1.780797e+03
2.490616e+03,1.773795e+03
2.501223e+03,1.752297e+03
2.511830e+03,1.749884e+03
2.522436e+03,1.738772e+03
2.533043e+03,1.749762e+03
2.543649e+03,1.720250e+03
2.554256e+03,1.719887e+03
2.564863e+03,1.721433e+03
2.575469e+03,1.711822e+03
2.586075e+03,1.694768e+03
2.596682e+03,1.704084e+03
2.607289e+03,1.680230e+03
2.617895e+03,1.662429e+03
2.628502e+03,1.660483e+03
2.639108e+03,1.659167e+03
2.649715e+03,1.617154e+03
2.660322e+03,1.621734e+03
2.670928e+03,1.629366e+03
2.681535e+03,1.620766e+03
2.692141e+03,1.574092e+03
2.702748e+03,1.588140e+03
2.713354e+03,1.583005e+03
2.723961e+03,1.598131e+03
2.734568e+03,1.604922e+03
2.745174e+03,1.600716e+03
2.755781e+03,1.539943e+03
2.766387e+03,1.538356e+03
2.776994e+03,1.545445e+03
2.787600e+03,1.568844e+03
2.798207e+03,1.529990e+03
2.808813e+03,1.542961e+03
2.819420e+03,1.531370e+03
2.830027e+03,1.543543e+03
2.840633e+03,1.485819e+03
2.851240e+03,1.512552e+03
2.861846e+03,1.503052e+03
2.872453e+03,1.516837e+03
2.883059e+03,1.513722e+03
2.893666e+03,1.506861e+03
2.904273e+03,1.526270e+03
2.914879e+03,1.502806e+03
2.925486e+03,1.476321e+03
2.936092e+03,1.458619e+03
2.946699e+03,1.462887e+03
2.957305e+03,1.522161e+03
2.967912e+03,1.470030e+03
2.978519e+03,1.451078e+03
2.989125e+03,1.393438e+03
2.999732e+03,1.432884e+03
3.010338e+03,1.407347e+03
3.020945e+03,1.423490e+03
3.031552e+03,1.436073e+03
3.042158e+03,1.477350e+03
3.052764e+03,1.431331e+03
3.063371e+03,1.430597e+03
3.073978e+03,1.375609e+03
3.084584e+03,1.395703e+03
3.095191e+03,1.413165e+03
3.105797e+03,1.405384e+03
3.116404e+03,1.425709e+03
3.127010e+03,1.399208e+03
3.137617e+03,1.476387e+03
3.148224e+03,1.409281e+03
3.158830e+03,1.415069e+03
3.169437e+03,1.464115e+03
3.180043e+03,1.412958e+03
3.190650e+03,1.460846e+03
3.200292e+03,1.503208e+03

File: green frag1.CSV
1.995979e+02,1.916116e+03
2.102045e+02,1.910451e+03
2.208110e+02,1.915949e+03
2.314176e+02,1.930605e+03
2.420242e+02,1.891083e+03
2.526307e+02,1.939308e+03
2.632373e+02,1.912581e+03
2.738439e+02,1.891673e+03
2.844504e+02,1.889442e+03
2.950570e+02,1.871469e+03
3.056636e+02,1.848214e+03
3.162701e+02,1.858555e+03
3.268767e+02,1.865483e+03
3.374833e+02,1.833387e+03
3.480898e+02,1.843346e+03
3.586964e+02,1.818971e+03
3.693030e+02,1.833012e+03
3.799095e+02,1.821774e+03
3.905161e+02,1.808642e+03
4.011227e+02,1.780849e+03
4.117292e+02,1.777661e+03
4.223358e+02,1.767387e+03
4.329424e+02,1.777518e+03
4.435490e+02,1.747495e+03
4.541555e+02,1.749689e+03
4.647621e+02,1.726694e+03
4.753687e+02,1.725273e+03
4.859752e+02,1.726424e+03
4.965818e+02,1.704804e+03
5.071884e+02,1.701512e+03
5.177949e+02,1.689750e+03
5.284015e+02,1.678046e+03
5.390081e+02,1.655358e+03
5.496146e+02,1.662799e+03
5.602212e+02,1.640361e+03
5.708278e+02,1.625701e+03
5.814343e+02,1.633570e+03
5.920409e+02,1.643267e+03
6.026475e+02,1.610070e+03
6.132540e+02,1.591880e+03
6.238606e+02,1.583142e+03
6.344672e+02,1.581220e+03
6.450737e+02,1.560088e+03
6.556803e+02,1.562269e+03
6.662869e+02,1.544439e+03
6.768934e+02,1.759621e+03
6.875000e+02,1.540549e+03
6.981066e+02,1.532344e+03
7.087131e+02,1.515583e+03
7.193197e+02,1.507926e+03
7.299263e+02,1.487980e+03
7.405328e+02,1.550538e+03
7.511394e+02,1.501814e+03
7.617460e+02,1.461887e+03
7.723525e+02,1.457780e+03
7.829591e+02,1.446890e+03
7.935657e+02,1.426034e+03
8.041722e+02,1.406687e+03
8.147788e+02,1.406722e+03
8.253854e+02,1.410687e+03
8.359919e+02,1.405500e+03
8.465985e+02,1.404320e+03
8.572051e+02,1.382977e+03
8.678116e+02,1.366897e+03
8.784182e+02,1.362517e+03
8.890248e+02,1.347981e+03
8.996313e+02,1.336255e+03
9.102379e+02,1.323978e+03
9.208445e+02,1.310674e+03
9.314510e+02,1.312683e+03
9.420576e+02,1.294867e+03
9.526642e+02,1.364559e+03
9.632708e+02,1.275252e+03
9.738773e+02,1.263133e+03
9.844839e+02,1.240285e+03
9.950905e+02,1.250218e+03
1.005697e+03,1.241771e+03
1.016304e+03,1.229959e+03
1.026910e+03,1.231191e+03
1.037517e+03,1.215815e+03
1.048123e+03,1.218475e+03
1.058730e+03,1.205882e+03
1.069336e+03,1.204387e+03
1.079943e+03,1.199579e+03
1.090550e+03,1.227636e+03
1.101156e+03,1.197117e+03
1.111763e+03,1.221063e+03
1.122369e+03,1.199695e+03
1.132976e+03,1.193467e+03
1.143582e+03,1.274560e+03
1.154189e+03,1.163040e+03
1.164796e+03,1.133592e+03
1.175402e+03,1.126307e+03
1.186009e+03,1.146105e+03
1.196615e+03,1.156722e+03
1.207222e+03,1.141386e+03
1.217828e+03,1.130976e+03
1.228435e+03,1.088585e+03
1.239042e+03,1.076135e+03
1.249648e+03,1.066400e+03
1.260255e+03,1.065374e+03
1.270861e+03,1.057848e+03
1.281468e+03,1.047452e+03
1.292074e+03,1.065721e+03
1.302681e+03,1.104447e+03
1.313287e+03,1.066425e+03
1.323894e+03,1.072188e+03
1.334501e+03,1.190765e+03
1.345107e+03,1.159399e+03
1.355714e+03,1.039803e+03
1.366320e+03,1.032240e+03
1.376927e+03,1.025220e+03
1.387533e+03,1.006354e+03
1.398140e+03,9.882941e+02
1.408747e+03,9.850245e+02
1.419353e+03,9.803792e+02
1.429960e+03,9.830995e+02
1.440566e+03,1.000955e+03
1.451173e+03,1.114327e+03
1.461779e+03,1.010396e+03
1.472386e+03,9.831140e+02
1.482993e+03,9.506735e+02
1.493599e+03,9.351848e+02
1.504206e+03,9.282521e+02
1.514812e+03,9.328514e+02
1.525419e+03,1.426115e+03
1.536025e+03,1.000984e+03
1.546632e+03,9.105975e+02
1.557239e+03,8.972432e+02
1.567845e+03,8.783945e+02
1.578452e+03,8.821718e+02
1.589058e+03,8.882734e+02
1.599665e+03,8.895431e+02
1.610271e+03,8.748600e+02
1.620878e+03,8.686868e+02
1.631484e+03,8.679538e+02
1.642091e+03,8.630426e+02
1.652698e+03,8.581133e+02
1.663304e+03,8.502496e+02
1.673911e+03,8.414887e+02
1.684517e+03,8.312964e+02
1.695124e+03,8.265109e+02
1.705730e+03,8.092504e+02
1.716337e+03,7.982333e+02
1.726944e+03,7.908378e+02
1.737550e+03,7.806774e+02
1.748157e+03,7.808718e+02
1.758763e+03,7.725851e+02
1.769370e+03,7.623123e+02
1.779976e+03,7.622683e+02
1.790583e+03,7.548155e+02
1.801190e+03,7.278311e+02
1.811796e+03,7.293588e+02
1.822403e+03,7.094176e+02
1.833009e+03,7.104576e+02
1.843616e+03,7.024114e+02
1.854222e+03,6.894359e+02
1.864829e+03,6.809692e+02
1.875436e+03,6.717275e+02
1.886042e+03,6.685779e+02
1.896649e+03,6.609347e+02
1.907255e+03,6.530457e+02
1.917862e+03,6.492214e+02
1.928468e+03,6.511525e+02
1.939075e+03,6.356966e+02
1.949682e+03,6.315957e+02
1.960288e+03,6.425569e+02
1.970895e+03,6.257232e+02
1.981501e+03,6.216525e+02
1.992108e+03,6.139343e+02
2.002714e+03,6.052991e+02
2.013321e+03,6.070333e+02
2.023927e+03,5.945746e+02
2.034534e+03,5.819368e+02
2.045141e+03,5.729537e+02
2.055747e+03,5.617679e+02
2.066354e+03,5.640906e+02
2.076960e+03,5.593285e+02
2.087567e+03,5.651121e+02
2.098173e+03,5.563597e+02
2.108780e+03,5.477712e+02
2.119387e+03,5.417578e+02
2.129993e+03,5.366489e+02
2.140600e+03,5.279830e+02
2.151206e+03,5.239091e+02
2.161813e+03,5.060899e+02
2.172419e+03,4.955512e+02
2.183026e+03,4.894965e+02
2.193633e+03,4.843700e+02
2.204239e+03,4.785783e+02
2.214846e+03,4.775696e+02
2.225452e+03,4.659473e+02
2.236059e+03,4.601986e+02
2.246666e+03,4.492204e+02
2.257272e+03,4.530216e+02
2.267879e+03,4.377784e+02
2.278485e+03,4.463393e+02
2.289092e+03,4.278803e+02
2.299698e+03,4.368120e+02
2.310305e+03,4.219995e+02
2.320911e+03,4.170806e+02
2.331518e+03,4.073324e+02
2.342125e+03,4.039297e+02
2.352731e+03,3.993799e+02
2.363338e+03,4.001041e+02
2.373944e+03,3.868004e+02
2.384551e+03,3.923081e+02
2.395157e+03,3.862047e+02
2.405764e+03,3.735670e+02
2.416370e+03,3.784618e+02
2.426977e+03,3.710691e+02
2.437584e+03,3.659255e+02
2.448190e+03,3.698439e+02
2.458797e+03,3.606055e+02
2.469403e+03,3.558677e+02
2.480010e+03,3.553691e+02
2.490616e+03,3.447259e+02
2.501223e+03,3.466560e+02
2.511830e+03,3.463636e+02
2.522436e+03,3.421066e+02
2.533043e+03,3.415682e+02
2.543649e+03,3.457654e+02
2.554256e+03,3.401001e+02
2.564863e+03,3.356768e+02
2.575469e+03,3.284472e+02
2.586075e+03,3.235930e+02
2.596682e+03,3.247136e+02
2.607289e+03,3.152576e+02
2.617895e+03,3.208251e+02
2.628502e+03,3.203912e+02
2.639108e+03,3.144344e+02
2.649715e+03,3.104970e+02
2.660322e+03,3.019028e+02
2.670928e+03,3.177686e+02
2.681535e+03,3.031556e+02
2.692141e+03,2.963292e+02
2.702748e+03,3.064384e+02
2.713354e+03,3.088401e+02
2.723961e+03,2.988858e+02
2.734568e+03,2.967905e+02
2.745174e+03,2.946953e+02
2.755781e+03,2.874989e+02
2.766387e+03,2.874780e+02
2.776994e+03,2.858805e+02
2.787600e+03,2.876211e+02
2.798207e+03,2.948145e+02
2.808813e+03,2.894565e+02
2.819420e+03,2.946443e+02
2.830027e+03,2.875067e+02
2.840633e+03,2.907192e+02
2.851240e+03,2.847699e+02
2.861846e+03,2.959370e+02
2.872453e+03,2.976388e+02
2.883059e+03,3.169616e+02
2.893666e+03,3.221460e+02
2.904273e+03,3.221409e+02
2.914879e+03,3.145493e+02
2.925486e+03,3.052305e+02
2.936092e+03,3.073255e+02
2.946699e+03,3.044508e+02
2.957305e+03,3.411702e+02
2.967912e+03,2.980697e+02
2.978519e+03,2.813727e+02
2.989125e+03,2.772940e+02
2.999732e+03,2.765898e+02
3.010338e+03,2.987085e+02
3.020945e+03,2.965888e+02
3.031552e+03,2.802451e+02
3.042158e+03,2.878747e+02
3.052764e+03,2.928035e+02
3.063371e+03,2.778058e+02
3.073978e+03,2.679370e+02
3.084584e+03,2.813951e+02
3.095191e+03,2.787669e+02
3.105797e+03,3.047831e+02
3.116404e+03,2.751113e+02
3.127010e+03,2.970488e+02
3.137617e+03,3.247137e+02
3.148224e+03,3.016413e+02
3.158830e+03,2.827517e+02
3.169437e+03,3.032123e+02
3.180043e+03,2.953575e+02
3.190650e+03,3.247990e+02
3.200292e+03,3.478990e+02

File: red fibre1.CSV
1.995979e+02,6.192914e+03
2.102045e+02,6.219460e+03
2.208110e+02,6.264295e+03
2.314176e+02,6.284358e+03
2.420242e+02,6.323697e+03
2.526307e+02,6.358427e+03
2.632373e+02,6.365017e+03
2.738439e+02,6.388756e+03
2.844504e+02,6.436894e+03
2.950570e+02,6.421914e+03
3.056636e+02,6.419000e+03
3.162701e+02,6.450756e+03
3.268767e+02,6.477872e+03
3.374833e+02,6.465041e+03
3.480898e+02,6.508345e+03
3.586964e+02,6.477359e+03
3.693030e+02,6.488805e+03
3.799095e+02,6.494411e+03
3.905161e+02,6.495542e+03
4.011227e+02,6.475994e+03
4.117292e+02,6.467401e+03
4.223358e+02,6.474925e+03
4.329424e+02,6.476614e+03
4.435490e+02,6.451650e+03
4.541555e+02,6.445744e+03
4.647621e+02,6.429654e+03
4.753687e+02,6.391386e+03
4.859752e+02,6.392556e+03
4.965818e+02,6.396996e+03
5.071884e+02,6.384474e+03
5.177949e+02,6.400516e+03
5.284015e+02,6.350377e+03
5.390081e+02,6.315929e+03
5.496146e+02,6.302103e+03
5.602212e+02,6.281682e+03
5.708278e+02,6.235415e+03
5.814343e+02,6.253198e+03
5.920409e+02,6.222366e+03
6.026475e+02,6.215275e+03
6.132540e+02,6.176773e+03
6.238606e+02,6.141177e+03
6.344672e+02,6.124574e+03
6.450737e+02,6.116388e+03
6.556803e+02,6.080859e+03
6.662869e+02,6.041167e+03
6.768934e+02,6.017363e+03
6.875000e+02,5.984891e+03
6.981066e+02,5.953109e+03
7.087131e+02,5.939196e+03
7.193197e+02,5.882487e+03
7.299263e+02,5.851397e+03
7.405328e+02,5.793204e+03
7.511394e+02,5.786783e+03
7.617460e+02,5.779940e+03
7.723525e+02,5.722834e+03
7.829591e+02,5.698132e+03
7.935657e+02,5.681157e+03
8.041722e+02,5.633530e+03
8.147788e+02,5.595554e+03
8.253854e+02,5.568845e+03
8.359919e+02,5.549056e+03
8.465985e+02,5.509301e+03
8.572051e+02,5.475307e+03
8.678116e+02,5.461146e+03
8.784182e+02,5.430036e+03
8.890248e+02,5.404606e+03
8.996313e+02,5.364139e+03
9.102379e+02,5.336712e+03
9.208445e+02,5.260382e+03
9.314510e+02,5.226676e+03
9.420576e+02,5.209453e+03
9.526642e+02,5.165911e+03
9.632708e+02,5.180065e+03
9.738773e+02,5.121653e+03
9.844839e+02,5.058795e+03
9.950905e+02,5.080741e+03
1.005697e+03,5.032192e+03
1.016304e+03,4.957115e+03
1.026910e+03,4.964542e+03
1.037517e+03,4.958810e+03
1.048123e+03,4.895975e+03
1.058730e+03,4.887909e+03
1.069336e+03,4.862064e+03
1.079943e+03,4.842585e+03
1.090550e+03,4.854762e+03
1.101156e+03,4.788667e+03
1.111763e+03,4.745803e+03
1.122369e+03,4.736444e+03
1.132976e+03,4.703635e+03
1.143582e+03,4.662530e+03
1.154189e+03,4.662275e+03
1.164796e+03,4.629218e+03
1.175402e+03,4.575740e+03
1.186009e+03,4.553237e+03
1.196615e+03,4.553807e+03
1.207222e+03,4.504406e+03
1.217828e+03,4.468443e+03
1.228435e+03,4.470742e+03
1.239042e+03,4.436813e+03
1.249648e+03,4.393817e+03
1.260255e+03,4.405866e+03
1.270861e+03,4.385369e+03
1.281468e+03,4.347551e+03
1.292074e+03,4.350973e+03
1.302681e+03,4.298963e+03
1.313287e+03,4.281243e+03
1.323894e+03,4.246944e+03
1.334501e+03,4.262167e+03
1.345107e+03,4.228435e+03
1.355714e+03,4.203867e+03
1.366320e+03,4.189780e+03
1.376927e+03,4.152512e+03
1.387533e+03,4.123051e+03
1.398140e+03,4.093175e+03
1.408747e+03,4.076820e+03
1.419353e+03,4.061302e+03
1.429960e+03,4.045265e+03
1.440566e+03,4.018413e+03
1.451173e+03,3.989612e+03
1.461779e+03,3.971712e+03
1.472386e+03,3.947770e+03
1.482993e+03,3.931598e+03
1.493599e+03,3.886195e+03
1.504206e+03,3.890853e+03
1.514812e+03,3.835484e+03
1.525419e+03,3.826899e+03
1.536025e+03,3.809193e+03
1.546632e+03,3.771450e+03
1.557239e+03,3.786004e+03
1.567845e+03,3.758087e+03
1.578452e+03,3.734286e+03
1.589058e+03,3.691559e+03
1.599665e+03,3.682369e+03
1.610271e+03,3.655749e+03
1.620878e+03,3.632017e+03
1.631484e+03,3.596822e+03
1.642091e+03,3.583173e+03
1.652698e+03,3.541221e+03
1.663304e+03,3.531791e+03
1.673911e+03,3.507453e+03
1.684517e+03,3.476531e+03
1.695124e+03,3.434334e+03
1.705730e+03,3.420526e+03
1.716337e+03,3.382367e+03
1.726944e+03,3.376426e+03
1.737550e+03,3.345688e+03
1.748157e+03,3.314200e+03
1.758763e+03,3.299113e+03
1.769370e+03,3.265777e+03
1.779976e+03,3.235222e+03
1.790583e+03,3.197292e+03
1.801190e+03,3.211878e+03
1.811796e+03,3.172295e+03
1.822403e+03,3.130140e+03
1.833009e+03,3.099872e+03
1.843616e+03,3.094642e+03
1.854222e+03,3.052883e+03
1.864829e+03,3.026117e+03
1.875436e+03,3.011739e+03
1.886042e+03,2.979771e+03
1.896649e+03,2.946740e+03
1.907255e+03,2.937796e+03
1.917862e+03,2.892783e+03
1.928468e+03,2.870153e+03
1.939075e+03,2.862399e+03
1.949682e+03,2.815118e+03
1.960288e+03,2.800009e+03
1.970895e+03,2.764623e+03
1.981501e+03,2.730904e+03
1.992108e+03,2.710405e+03
2.002714e+03,2.672376e+03
2.013321e+03,2.654463e+03
2.023927e+03,2.636813e+03
2.034534e+03,2.620768e+03
2.045141e+03,2.575656e+03
2.055747e+03,2.549975e+03
2.066354e+03,2.535265e+03
2.076960e+03,2.505772e+03
2.087567e+03,2.470899e+03
2.098173e+03,2.451225e+03
2.108780e+03,2.421059e+03
2.119387e+03,2.385401e+03
2.129993e+03,2.374213e+03
2.140600e+03,2.341886e+03
2.151206e+03,2.312296e+03
2.161813e+03,2.305005e+03
2.172419e+03,2.271512e+03
2.183026e+03,2.231601e+03
2.193633e+03,2.226964e+03
2.204239e+03,2.212714e+03
2.214846e+03,2.178520e+03
2.225452e+03,2.120019e+03
2.236059e+03,2.124518e+03
2.246666e+03,2.081163e+03
2.257272e+03,2.059717e+03
2.267879e+03,2.035022e+03
2.278485e+03,2.035240e+03
2.289092e+03,1.989493e+03
2.299698e+03,1.983094e+03
2.310305e+03,1.958827e+03
2.320911e+03,1.935019e+03
2.331518e+03,1.895809e+03
2.342125e+03,1.875120e+03
2.352731e+03,1.851847e+03
2.363338e+03,1.855122e+03
2.373944e+03,1.843972e+03
2.384551e+03,1.798841e+03
2.395157e+03,1.803858e+03
2.405764e+03,1.780885e+03
2.416370e+03,1.745922e+03
2.426977e+03,1.708947e+03
2.437584e+03,1.692981e+03
2.448190e+03,1.704552e+03
2.458797e+03,1.687617e+03
2.469403e+03,1.635669e+03
2.480010e+03,1.631888e+03
2.490616e+03,1.627013e+03
2.501223e+03,1.597319e+03
2.511830e+03,1.594368e+03
2.522436e+03,1.572896e+03
2.533043e+03,1.561826e+03
2.543649e+03,1.554871e+03
2.554256e+03,1.543155e+03
2.564863e+03,1.521189e+03
2.575469e+03,1.503733e+03
2.586075e+03,1.486014e+03
2.596682e+03,1.469277e+03
2.607289e+03,1.451796e+03
2.617895e+03,1.429752e+03
2.628502e+03,1.435713e+03
2.639108e+03,1.410028e+03
2.649715e+03,1.394498e+03
2.660322e+03,1.392034e+03
2.670928e+03,1.383991e+03
2.681535e+03,1.362558e+03
2.692141e+03,1.354122e+03
2.702748e+03,1.324635e+03
2.713354e+03,1.342543e+03
2.723961e+03,1.300463e+03
2.734568e+03,1.301671e+03
2.745174e+03,1.309340e+03
2.755781e+03,1.295425e+03
2.766387e+03,1.248351e+03
2.776994e+03,1.252783e+03
2.787600e+03,1.244560e+03
2.798207e+03,1.238585e+03
2.808813e+03,1.241135e+03
2.819420e+03,1.226044e+03
2.830027e+03,1.216385e+03
2.840633e+03,1.216246e+03
2.851240e+03,1.212319e+03
2.861846e+03,1.188729e+03
2.872453e+03,1.190065e+03
2.883059e+03,1.175786e+03
2.893666e+03,1.229479e+03
2.904273e+03,1.162609e+03
2.914879e+03,1.183592e+03
2.925486e+03,1.178555e+03
2.936092e+03,1.146078e+03
2.946699e+03,1.151245e+03
2.957305e+03,1.209075e+03
2.967912e+03,1.144149e+03
2.978519e+03,1.120639e+03
2.989125e+03,1.089206e+03
2.999732e+03,1.094340e+03
3.010338e+03,1.081387e+03
3.020945e+03,1.083993e+03
3.031552e+03,1.071597e+03
3.042158e+03,1.068120e+03
3.052764e+03,1.058725e+03
3.063371e+03,1.070089e+03
3.073978e+03,1.038503e+03
3.084584e+03,1.041636e+03
3.095191e+03,1.054766e+03
3.105797e+03,1.046707e+03
3.116404e+03,1.070738e+03
3.127010e+03,1.003670e+03
3.137617e+03,1.082691e+03
3.148224e+03,1.047290e+03
3.158830e+03,1.089839e+03
3.169437e+03,1.030969e+03
3.180043e+03,1.042183e+03
3.190650e+03,1.030813e+03
3.200292e+03,1.096355e+03