Folder: Taff_Bargoed_microplastics_data/RAMAN_data/06022023_r1

Note: README.md
# Taff_Bargoed_microplastics_data

File: black fibre1.CSV
1.995979e+02,2.088856e+03
2.102045e+02,2.111344e+03
2.208110e+02,2.110485e+03
2.314176e+02,2.109145e+03
2.420242e+02,2.115939e+03
2.526307e+02,2.138732e+03
2.632373e+02,2.131406e+03
2.738439e+02,2.153927e+03
2.844504e+02,2.158185e+03
2.950570e+02,2.149825e+03
3.056636e+02,2.160744e+03
3.162701e+02,2.161869e+03
3.268767e+02,2.167911e+03
3.374833e+02,2.170870e+03
3.480898e+02,2.178283e+03
3.586964e+02,2.182428e+03
3.693030e+02,2.185860e+03
3.799095e+02,2.198216e+03
3.905161e+02,2.176001e+03
4.011227e+02,2.161326e+03
4.117292e+02,2.161991e+03
4.223358e+02,2.157314e+03
4.329424e+02,2.174913e+03
4.435490e+02,2.175862e+03
4.541555e+02,2.168548e+03
4.647621e+02,2.137963e+03
4.753687e+02,2.138115e+03
4.859752e+02,2.167810e+03
4.965818e+02,2.144493e+03
5.071884e+02,2.136587e+03
5.177949e+02,2.136822e+03
5.284015e+02,2.119315e+03
5.390081e+02,2.102394e+03
5.496146e+02,2.118821e+03
5.602212e+02,2.110903e+03
5.708278e+02,2.083747e+03
5.814343e+02,2.090205e+03
5.920409e+02,2.093428e+03
6.026475e+02,2.086950e+03
6.132540e+02,2.072791e+03
6.238606e+02,2.063776e+03
6.344672e+02,2.061302e+03
6.450737e+02,2.045789e+03
6.556803e+02,2.042205e+03
6.662869e+02,2.038302e+03
6.768934e+02,2.032645e+03
6.875000e+02,2.007449e+03
6.981066e+02,2.015492e+03
7.087131e+02,1.987362e+03
7.193197e+02,1.986349e+03
7.299263e+02,1.982531e+03
7.405328e+02,1.969708e+03
7.511394e+02,1.952336e+03
7.617460e+02,1.949411e+03
7.723525e+02,1.934327e+03
7.829591e+02,1.920510e+03
7.935657e+02,1.932432e+03
8.041722e+02,1.924206e+03
8.147788e+02,1.922123e+03
8.253854e+02,1.900141e+03
8.359919e+02,1.876427e+03
8.465985e+02,1.877275e+03
8.572051e+02,1.869106e+03
8.678116e+02,1.852122e+03
8.784182e+02,1.857518e+03
8.890248e+02,1.858043e+03
8.996313e+02,1.826014e+03
9.102379e+02,1.827450e+03
9.208445e+02,1.808940e+03
9.314510e+02,1.799876e+03
9.420576e+02,1.780226e+03
9.526642e+02,1.780239e+03
9.632708e+02,1.775482e+03
9.738773e+02,1.748952e+03
9.844839e+02,1.739159e+03
9.950905e+02,1.746236e+03
1.005697e+03,1.729641e+03
1.016304e+03,1.696118e+03
1.026910e+03,1.710222e+03
1.037517e+03,1.710825e+03
1.048123e+03,1.695417e+03
1.058730e+03,1.679215e+03
1.069336e+03,1.684170e+03
1.079943e+03,1.687803e+03
1.090550e+03,1.713722e+03
1.101156e+03,1.672821e+03
1.111763e+03,1.671510e+03
1.122369e+03,1.683571e+03
1.132976e+03,1.658324e+03
1.143582e+03,1.648974e+03
1.154189e+03,1.643708e+03
1.164796e+03,1.601349e+03
1.175402e+03,1.608813e+03
1.186009e+03,1.583196e+03
1.196615e+03,1.565594e+03
1.207222e+03,1.565913e+03
1.217828e+03,1.566134e+03
1.228435e+03,1.552902e+03
1.239042e+03,1.537621e+03
1.249648e+03,1.528262e+03
1.260255e+03,1.518047e+03
1.270861e+03,1.512220e+03
1.281468e+03,1.528978e+03
1.292074e+03,1.519359e+03
1.302681e+03,1.496142e+03
1.313287e+03,1.478196e+03
1.323894e+03,1.493962e+03
1.334501e+03,1.495060e+03
1.345107e+03,1.481684e+03
1.355714e+03,1.476633e+03
1.366320e+03,1.467317e+03
1.376927e+03,1.449385e+03
1.387533e+03,1.416502e+03
1.398140e+03,1.405030e+03
1.408747e+03,1.406425e+03
1.419353e+03,1.394049e+03
1.429960e+03,1.381509e+03
1.440566e+03,1.362473e+03
1.451173e+03,1.369373e+03
1.461779e+03,1.346380e+03
1.472386e+03,1.350526e+03
1.482993e+03,1.344951e+03
1.493599e+03,1.329938e+03
1.504206e+03,1.319843e+03
1.514812e+03,1.302321e+03
1.525419e+03,1.288961e+03
1.536025e+03,1.301279e+03
1.546632e+03,1.283685e+03
1.557239e+03,1.285422e+03
1.567845e+03,1.294272e+03
1.578452e+03,1.284353e+03
1.589058e+03,1.283838e+03
1.599665e+03,1.254528e+03
1.610271e+03,1.251478e+03
1.620878e+03,1.234617e+03
1.631484e+03,1.224963e+03
1.642091e+03,1.205287e+03
1.652698e+03,1.211319e+03
1.663304e+03,1.201025e+03
1.673911e+03,1.192648e+03
1.684517e+03,1.176136e+03
1.695124e+03,1.168351e+03
1.705730e+03,1.172949e+03
1.716337e+03,1.163829e+03
1.726944e+03,1.137719e+03
1.737550e+03,1.136702e+03
1.748157e+03,1.122988e+03
1.758763e+03,1.116370e+03
1.769370e+03,1.112127e+03
1.779976e+03,1.093562e+03
1.790583e+03,1.088758e+03
1.801190e+03,1.090254e+03
1.811796e+03,1.073114e+03
1.822403e+03,1.053933e+03
1.833009e+03,1.054070e+03
1.843616e+03,1.058381e+03
1.854222e+03,1.031262e+03
1.864829e+03,1.028037e+03
1.875436e+03,1.021950e+03
1.886042e+03,1.017439e+03
1.896649e+03,1.011753e+03
1.907255e+03,9.974192e+02
1.917862e+03,9.767059e+02
1.928468e+03,9.766387e+02
1.939075e+03,9.727842e+02
1.949682e+03,9.540955e+02
1.960288e+03,9.484911e+02
1.970895e+03,9.311025e+02
1.981501e+03,9.410540e+02
1.992108e+03,9.152480e+02
2.002714e+03,9.232616e+02
2.013321e+03,8.987708e+02
2.023927e+03,9.027620e+02
2.034534e+03,8.756513e+02
2.045141e+03,8.710340e+02
2.055747e+03,8.653030e+02
2.066354e+03,8.621130e+02
2.076960e+03,8.570089e+02
2.087567e+03,8.390300e+02
2.098173e+03,8.309766e+02
2.108780e+03,8.309669e+02
2.119387e+03,8.165168e+02
2.129993e+03,8.101418e+02
2.140600e+03,8.043365e+02
2.151206e+03,7.957920e+02
2.161813e+03,7.813708e+02
2.172419e+03,7.805019e+02
2.183026e+03,7.739252e+02
2.193633e+03,7.449649e+02
2.204239e+03,7.482966e+02
2.214846e+03,7.360161e+02
2.225452e+03,7.172223e+02
2.236059e+03,7.269542e+02
2.246666e+03,7.154316e+02
2.257272e+03,7.065170e+02
2.267879e+03,6.957850e+02
2.278485e+03,6.936622e+02
2.289092e+03,6.877347e+02
2.299698e+03,6.823694e+02
2.310305e+03,6.735310e+02
2.320911e+03,6.607104e+02
2.331518e+03,6.567587e+02
2.342125e+03,6.428133e+02
2.352731e+03,6.293337e+02
2.363338e+03,6.338078e+02
2.373944e+03,6.274702e+02
2.384551e+03,6.138452e+02
2.395157e+03,6.137548e+02
2.405764e+03,6.106622e+02
2.416370e+03,5.990393e+02
2.426977e+03,5.991765e+02
2.437584e+03,5.830389e+02
2.448190e+03,5.875156e+02
2.458797e+03,5.811097e+02
2.469403e+03,5.670862e+02
2.480010e+03,5.718358e+02
2.490616e+03,5.558815e+02
2.501223e+03,5.663107e+02
2.511830e+03,5.537213e+02
2.522436e+03,5.249001e+02
2.533043e+03,5.413932e+02
2.543649e+03,5.475794e+02
2.554256e+03,5.389114e+02
2.564863e+03,5.243524e+02
2.575469e+03,5.305939e+02
2.586075e+03,5.236257e+02
2.596682e+03,5.178411e+02
2.607289e+03,5.034184e+02
2.617895e+03,5.041374e+02
2.628502e+03,5.108864e+02
2.639108e+03,4.898017e+02
2.649715e+03,4.856349e+02
2.660322e+03,4.751436e+02
2.670928e+03,4.684005e+02
2.681535e+03,4.763823e+02
2.692141e+03,4.608618e+02
2.702748e+03,4.621710e+02
2.713354e+03,4.659237e+02
2.723961e+03,4.725652e+02
2.734568e+03,4.642833e+02
2.745174e+03,4.587548e+02
2.755781e+03,4.517121e+02
2.766387e+03,4.516832e+02
2.776994e+03,4.533402e+02
2.787600e+03,4.374123e+02
2.798207e+03,4.565742e+02
2.808813e+03,4.342836e+02
2.819420e+03,4.348545e+02
2.830027e+03,4.427510e+02
2.840633e+03,4.196607e+02
2.851240e+03,4.392638e+02
2.861846e+03,4.556600e+02
2.872453e+03,4.442118e+02
2.883059e+03,4.518261e+02
2.893666e+03,4.683981e+02
2.904273e+03,4.659297e+02
2.914879e+03,4.352415e+02
2.925486e+03,4.340161e+02
2.936092e+03,4.120670e+02
2.946699e+03,4.216790e+02
2.957305e+03,4.610905e+02
2.967912e+03,4.073856e+02
2.978519e+03,3.964650e+02
2.989125e+03,3.819034e+02
2.999732e+03,3.866767e+02
3.010338e+03,3.972378e+02
3.020945e+03,3.840368e+02
3.031552e+03,3.800761e+02
3.042158e+03,3.826003e+02
3.052764e+03,3.718971e+02
3.063371e+03,3.806290e+02
3.073978e+03,3.748442e+02
3.084584e+03,3.667182e+02
3.095191e+03,3.867296e+02
3.105797e+03,3.567760e+02
3.116404e+03,3.909619e+02
3.127010e+03,3.727786e+02
3.137617e+03,3.895102e+02
3.148224e+03,3.810780e+02
3.158830e+03,3.810394e+02
3.169437e+03,3.608541e+02
3.180043e+03,3.749173e+02
3.190650e+03,4.114696e+02
3.200292e+03,4.633672e+02

File: black fibre2.CSV
1.995979e+02,5.611044e+03
2.102045e+02,5.625142e+03
2.208110e+02,5.639582e+03
2.314176e+02,5.650190e+03
2.420242e+02,5.674829e+03
2.526307e+02,5.701492e+03
2.632373e+02,5.735711e+03
2.738439e+02,5.731149e+03
2.844504e+02,5.747468e+03
2.950570e+02,5.750835e+03
3.056636e+02,5.771999e+03
3.162701e+02,5.765070e+03
3.268767e+02,5.767832e+03
3.374833e+02,5.764658e+03
3.480898e+02,5.771859e+03
3.586964e+02,5.781140e+03
3.693030e+02,5.764881e+03
3.799095e+02,5.808609e+03
3.905161e+02,5.777612e+03
4.011227e+02,5.779193e+03
4.117292e+02,5.751287e+03
4.223358e+02,5.733768e+03
4.329424e+02,5.749245e+03
4.435490e+02,5.735851e+03
4.541555e+02,5.742291e+03
4.647621e+02,5.689168e+03
4.753687e+02,5.693906e+03
4.859752e+02,5.695946e+03
4.965818e+02,5.665877e+03
5.071884e+02,5.653712e+03
5.177949e+02,5.647541e+03
5.284015e+02,5.604476e+03
5.390081e+02,5.570800e+03
5.496146e+02,5.549347e+03
5.602212e+02,5.542870e+03
5.708278e+02,5.514256e+03
5.814343e+02,5.511588e+03
5.920409e+02,5.472811e+03
6.026475e+02,5.458619e+03
6.132540e+02,5.448857e+03
6.238606e+02,5.436731e+03
6.344672e+02,5.397780e+03
6.450737e+02,5.350319e+03
6.556803e+02,5.333486e+03
6.662869e+02,5.293625e+03
6.768934e+02,5.290447e+03
6.875000e+02,5.242581e+03
6.981066e+02,5.224222e+03
7.087131e+02,5.185018e+03
7.193197e+02,5.165812e+03
7.299263e+02,5.149447e+03
7.405328e+02,5.106075e+03
7.511394e+02,5.071367e+03
7.617460e+02,5.065485e+03
7.723525e+02,4.987180e+03
7.829591e+02,4.991851e+03
7.935657e+02,4.958023e+03
8.041722e+02,4.893370e+03
8.147788e+02,4.874060e+03
8.253854e+02,4.874639e+03
8.359919e+02,4.827954e+03
8.465985e+02,4.784990e+03
8.572051e+02,4.794628e+03
8.678116e+02,4.722480e+03
8.784182e+02,4.694201e+03
8.890248e+02,4.663834e+03
8.996313e+02,4.655481e+03
9.102379e+02,4.605245e+03
9.208445e+02,4.554116e+03
9.314510e+02,4.545658e+03
9.420576e+02,4.500110e+03
9.526642e+02,4.483705e+03
9.632708e+02,4.446053e+03
9.738773e+02,4.405490e+03
9.844839e+02,4.361970e+03
9.950905e+02,4.354863e+03
1.005697e+03,4.326971e+03
1.016304e+03,4.268995e+03
1.026910e+03,4.256618e+03
1.037517e+03,4.236109e+03
1.048123e+03,4.183240e+03
1.058730e+03,4.181132e+03
1.069336e+03,4.152825e+03
1.079943e+03,4.120090e+03
1.090550e+03,4.109271e+03
1.101156e+03,4.062104e+03
1.111763e+03,4.073142e+03
1.122369e+03,4.049606e+03
1.132976e+03,4.017098e+03
1.143582e+03,3.978009e+03
1.154189e+03,3.966225e+03
1.164796e+03,3.901992e+03
1.175402e+03,3.870181e+03
1.186009e+03,3.858159e+03
1.196615e+03,3.825007e+03
1.207222e+03,3.792996e+03
1.217828e+03,3.749621e+03
1.228435e+03,3.734820e+03
1.239042e+03,3.730314e+03
1.249648e+03,3.691662e+03
1.260255e+03,3.657394e+03
1.270861e+03,3.651508e+03
1.281468e+03,3.638931e+03
1.292074e+03,3.608591e+03
1.302681e+03,3.566978e+03
1.313287e+03,3.539322e+03
1.323894e+03,3.536760e+03
1.334501e+03,3.511270e+03
1.345107e+03,3.498503e+03
1.355714e+03,3.446342e+03
1.366320e+03,3.443966e+03
1.376927e+03,3.406596e+03
1.387533e+03,3.394873e+03
1.398140e+03,3.369405e+03
1.408747e+03,3.325306e+03
1.419353e+03,3.299895e+03
1.429960e+03,3.285103e+03
1.440566e+03,3.242594e+03
1.451173e+03,3.241777e+03
1.461779e+03,3.218226e+03
1.472386e+03,3.178458e+03
1.482993e+03,3.159661e+03
1.493599e+03,3.146799e+03
1.504206e+03,3.120246e+03
1.514812e+03,3.093012e+03
1.525419e+03,3.078138e+03
1.536025e+03,3.048293e+03
1.546632e+03,3.025671e+03
1.557239e+03,3.027981e+03
1.567845e+03,3.004620e+03
1.578452e+03,2.986979e+03
1.589058e+03,2.958320e+03
1.599665e+03,2.928983e+03
1.610271e+03,2.891794e+03
1.620878e+03,2.884794e+03
1.631484e+03,2.865129e+03
1.642091e+03,2.840150e+03
1.652698e+03,2.818730e+03
1.663304e+03,2.790133e+03
1.673911e+03,2.778465e+03
1.684517e+03,2.753286e+03
1.695124e+03,2.724193e+03
1.705730e+03,2.729808e+03
1.716337e+03,2.686519e+03
1.726944e+03,2.667357e+03
1.737550e+03,2.650131e+03
1.748157e+03,2.615678e+03
1.758763e+03,2.595845e+03
1.769370e+03,2.569827e+03
1.779976e+03,2.552968e+03
1.790583e+03,2.525868e+03
1.801190e+03,2.525247e+03
1.811796e+03,2.485821e+03
1.822403e+03,2.461839e+03
1.833009e+03,2.452200e+03
1.843616e+03,2.440298e+03
1.854222e+03,2.393498e+03
1.864829e+03,2.397402e+03
1.875436e+03,2.367852e+03
1.886042e+03,2.340424e+03
1.896649e+03,2.301281e+03
1.907255e+03,2.276075e+03
1.917862e+03,2.247709e+03
1.928468e+03,2.232204e+03
1.939075e+03,2.224720e+03
1.949682e+03,2.202479e+03
1.960288e+03,2.174011e+03
1.970895e+03,2.157078e+03
1.981501e+03,2.136009e+03
1.992108e+03,2.100139e+03
2.002714e+03,2.089218e+03
2.013321e+03,2.079545e+03
2.023927e+03,2.038928e+03
2.034534e+03,2.033258e+03
2.045141e+03,1.994464e+03
2.055747e+03,1.979493e+03
2.066354e+03,1.957414e+03
2.076960e+03,1.942412e+03
2.087567e+03,1.908025e+03
2.098173e+03,1.912748e+03
2.108780e+03,1.886834e+03
2.119387e+03,1.859459e+03
2.129993e+03,1.852762e+03
2.140600e+03,1.824584e+03
2.151206e+03,1.782939e+03
2.161813e+03,1.775500e+03
2.172419e+03,1.771288e+03
2.183026e+03,1.727400e+03
2.193633e+03,1.693084e+03
2.204239e+03,1.696267e+03
2.214846e+03,1.680540e+03
2.225452e+03,1.633322e+03
2.236059e+03,1.631125e+03
2.246666e+03,1.600512e+03
2.257272e+03,1.599593e+03
2.267879e+03,1.563423e+03
2.278485e+03,1.540270e+03
2.289092e+03,1.515395e+03
2.299698e+03,1.515956e+03
2.310305e+03,1.507465e+03
2.320911e+03,1.477065e+03
2.331518e+03,1.460635e+03
2.342125e+03,1.439410e+03
2.352731e+03,1.416406e+03
2.363338e+03,1.400886e+03
2.373944e+03,1.379046e+03
2.384551e+03,1.381916e+03
2.395157e+03,1.355230e+03
2.405764e+03,1.336184e+03
2.416370e+03,1.328618e+03
2.426977e+03,1.309427e+03
2.437584e+03,1.278733e+03
2.448190e+03,1.272975e+03
2.458797e+03,1.271337e+03
2.469403e+03,1.253728e+03
2.480010e+03,1.246543e+03
2.490616e+03,1.205016e+03
2.501223e+03,1.204345e+03
2.511830e+03,1.193208e+03
2.522436e+03,1.173299e+03
2.533043e+03,1.181147e+03
2.543649e+03,1.160394e+03
2.554256e+03,1.145481e+03
2.564863e+03,1.132269e+03
2.575469e+03,1.125628e+03
2.586075e+03,1.112512e+03
2.596682e+03,1.080376e+03
2.607289e+03,1.072115e+03
2.617895e+03,1.072401e+03
2.628502e+03,1.067438e+03
2.639108e+03,1.067156e+03
2.649715e+03,1.034277e+03
2.660322e+03,1.024131e+03
2.670928e+03,1.030308e+03
2.681535e+03,1.008661e+03
2.692141e+03,1.001662e+03
2.702748e+03,9.993866e+02
2.713354e+03,9.953502e+02
2.723961e+03,9.714842e+02
2.734568e+03,9.697500e+02
2.745174e+03,9.629106e+02
2.755781e+03,9.637982e+02
2.766387e+03,9.449648e+02
2.776994e+03,9.371329e+02
2.787600e+03,9.119892e+02
2.798207e+03,9.219561e+02
2.808813e+03,9.021095e+02
2.819420e+03,8.992625e+02
2.830027e+03,9.180347e+02
2.840633e+03,8.900748e+02
2.851240e+03,8.974397e+02
2.861846e+03,8.989313e+02
2.872453e+03,9.074033e+02
2.883059e+03,8.864137e+02
2.893666e+03,8.939451e+02
2.904273e+03,8.771631e+02
2.914879e+03,8.575211e+02
2.925486e+03,8.569216e+02
2.936092e+03,8.650251e+02
2.946699e+03,8.442369e+02
2.957305e+03,8.693655e+02
2.967912e+03,8.247942e+02
2.978519e+03,8.088307e+02
2.989125e+03,7.972578e+02
2.999732e+03,7.800426e+02
3.010338e+03,8.163906e+02
3.020945e+03,7.728676e+02
3.031552e+03,7.671890e+02
3.042158e+03,7.995852e+02
3.052764e+03,7.801388e+02
3.063371e+03,7.846709e+02
3.073978e+03,7.616989e+02
3.084584e+03,7.519720e+02
3.095191e+03,7.664691e+02
3.105797e+03,7.544614e+02
3.116404e+03,7.615465e+02
3.127010e+03,7.637567e+02
3.137617e+03,8.014982e+02
3.148224e+03,7.635000e+02
3.158830e+03,7.938948e+02
3.169437e+03,7.710255e+02
3.180043e+03,7.620388e+02
3.190650e+03,7.860419e+02
3.200292e+03,8.504001e+02

File: black fibre3.CSV
1.995979e+02,4.675490e+03
2.102045e+02,4.701280e+03
2.208110e+02,4.728546e+03
2.314176e+02,4.706651e+03
2.420242e+02,4.757583e+03
2.526307e+02,4.776970e+03
2.632373e+02,4.787905e+03
2.738439e+02,4.801317e+03
2.844504e+02,4.848608e+03
2.950570e+02,4.819293e+03
3.056636e+02,4.823743e+03
3.162701e+02,4.841943e+03
3.268767e+02,4.859805e+03
3.374833e+02,4.837517e+03
3.480898e+02,4.862420e+03
3.586964e+02,4.865221e+03
3.693030e+02,4.872638e+03
3.799095e+02,4.896308e+03
3.905161e+02,4.860717e+03
4.011227e+02,4.857534e+03
4.117292e+02,4.835757e+03
4.223358e+02,4.844268e+03
4.329424e+02,4.845676e+03
4.435490e+02,4.831034e+03
4.541555e+02,4.856634e+03
4.647621e+02,4.812671e+03
4.753687e+02,4.785503e+03
4.859752e+02,4.784519e+03
4.965818e+02,4.753320e+03
5.071884e+02,4.753951e+03
5.177949e+02,4.743380e+03
5.284015e+02,4.747720e+03
5.390081e+02,4.695026e+03
5.496146e+02,4.702787e+03
5.602212e+02,4.678508e+03
5.708278e+02,4.622485e+03
5.814343e+02,4.649486e+03
5.920409e+02,4.626974e+03
6.026475e+02,4.598165e+03
6.132540e+02,4.597712e+03
6.238606e+02,4.572248e+03
6.344672e+02,4.540787e+03
6.450737e+02,4.530326e+03
6.556803e+02,4.510896e+03
6.662869e+02,4.473686e+03
6.768934e+02,4.457403e+03
6.875000e+02,4.434091e+03
6.981066e+02,4.402698e+03
7.087131e+02,4.380862e+03
7.193197e+02,4.367521e+03
7.299263e+02,4.333881e+03
7.405328e+02,4.319002e+03
7.511394e+02,4.272462e+03
7.617460e+02,4.267276e+03
7.723525e+02,4.241094e+03
7.829591e+02,4.212185e+03
7.935657e+02,4.192462e+03
8.041722e+02,4.175728e+03
8.147788e+02,4.148690e+03
8.253854e+02,4.126562e+03
8.359919e+02,4.098913e+03
8.465985e+02,4.085822e+03
8.572051e+02,4.049090e+03
8.678116e+02,4.029162e+03
8.784182e+02,3.990049e+03
8.890248e+02,3.964572e+03
8.996313e+02,3.949726e+03
9.102379e+02,3.927584e+03
9.208445e+02,3.867856e+03
9.314510e+02,3.874164e+03
9.420576e+02,3.846223e+03
9.526642e+02,3.804436e+03
9.632708e+02,3.792687e+03
9.738773e+02,3.752643e+03
9.844839e+02,3.721210e+03
9.950905e+02,3.727988e+03
1.005697e+03,3.677624e+03
1.016304e+03,3.644326e+03
1.026910e+03,3.640898e+03
1.037517e+03,3.631697e+03
1.048123e+03,3.583255e+03
1.058730e+03,3.573093e+03
1.069336e+03,3.552149e+03
1.079943e+03,3.532059e+03
1.090550e+03,3.556027e+03
1.101156e+03,3.502969e+03
1.111763e+03,3.479244e+03
1.122369e+03,3.463145e+03
1.132976e+03,3.440133e+03
1.143582e+03,3.402822e+03
1.154189e+03,3.393031e+03
1.164796e+03,3.358915e+03
1.175402e+03,3.336844e+03
1.186009e+03,3.307177e+03
1.196615e+03,3.300902e+03
1.207222e+03,3.252704e+03
1.217828e+03,3.254104e+03
1.228435e+03,3.222614e+03
1.239042e+03,3.208506e+03
1.249648e+03,3.174102e+03
1.260255e+03,3.166194e+03
1.270861e+03,3.155308e+03
1.281468e+03,3.137008e+03
1.292074e+03,3.119331e+03
1.302681e+03,3.100529e+03
1.313287e+03,3.068114e+03
1.323894e+03,3.062116e+03
1.334501e+03,3.054731e+03
1.345107e+03,3.038363e+03
1.355714e+03,3.017603e+03
1.366320e+03,2.999291e+03
1.376927e+03,2.978443e+03
1.387533e+03,2.948727e+03
1.398140e+03,2.914192e+03
1.408747e+03,2.909532e+03
1.419353e+03,2.888753e+03
1.429960e+03,2.866059e+03
1.440566e+03,2.841084e+03
1.451173e+03,2.813044e+03
1.461779e+03,2.791223e+03
1.472386e+03,2.791111e+03
1.482993e+03,2.752495e+03
1.493599e+03,2.741413e+03
1.504206e+03,2.719637e+03
1.514812e+03,2.698004e+03
1.525419e+03,2.692035e+03
1.536025e+03,2.683711e+03
1.546632e+03,2.653632e+03
1.557239e+03,2.642961e+03
1.567845e+03,2.641941e+03
1.578452e+03,2.609211e+03
1.589058e+03,2.593657e+03
1.599665e+03,2.572059e+03
1.610271e+03,2.562408e+03
1.620878e+03,2.541048e+03
1.631484e+03,2.510746e+03
1.642091e+03,2.499330e+03
1.652698e+03,2.468850e+03
1.663304e+03,2.452493e+03
1.673911e+03,2.425906e+03
1.684517e+03,2.422343e+03
1.695124e+03,2.394749e+03
1.705730e+03,2.375961e+03
1.716337e+03,2.345282e+03
1.726944e+03,2.331626e+03
1.737550e+03,2.320813e+03
1.748157e+03,2.304419e+03
1.758763e+03,2.290588e+03
1.769370e+03,2.259687e+03
1.779976e+03,2.238054e+03
1.790583e+03,2.210319e+03
1.801190e+03,2.211373e+03
1.811796e+03,2.185852e+03
1.822403e+03,2.167745e+03
1.833009e+03,2.152526e+03
1.843616e+03,2.141303e+03
1.854222e+03,2.110875e+03
1.864829e+03,2.100062e+03
1.875436e+03,2.075010e+03
1.886042e+03,2.051930e+03
1.896649e+03,2.036977e+03
1.907255e+03,2.006884e+03
1.917862e+03,1.991752e+03
1.928468e+03,1.987700e+03
1.939075e+03,1.950626e+03
1.949682e+03,1.931291e+03
1.960288e+03,1.906723e+03
1.970895e+03,1.895026e+03
1.981501e+03,1.871348e+03
1.992108e+03,1.852149e+03
2.002714e+03,1.835706e+03
2.013321e+03,1.824495e+03
2.023927e+03,1.806464e+03
2.034534e+03,1.797673e+03
2.045141e+03,1.782038e+03
2.055747e+03,1.742315e+03
2.066354e+03,1.731722e+03
2.076960e+03,1.732276e+03
2.087567e+03,1.701391e+03
2.098173e+03,1.672182e+03
2.108780e+03,1.662249e+03
2.119387e+03,1.642084e+03
2.129993e+03,1.626357e+03
2.140600e+03,1.602697e+03
2.151206e+03,1.575521e+03
2.161813e+03,1.569699e+03
2.172419e+03,1.542576e+03
2.183026e+03,1.529152e+03
2.193633e+03,1.494825e+03
2.204239e+03,1.500380e+03
2.214846e+03,1.474144e+03
2.225452e+03,1.443482e+03
2.236059e+03,1.439220e+03
2.246666e+03,1.407095e+03
2.257272e+03,1.393545e+03
2.267879e+03,1.378678e+03
2.278485e+03,1.347159e+03
2.289092e+03,1.351017e+03
2.299698e+03,1.334336e+03
2.310305e+03,1.322292e+03
2.320911e+03,1.304333e+03
2.331518e+03,1.283027e+03
2.342125e+03,1.258021e+03
2.352731e+03,1.236843e+03
2.363338e+03,1.234208e+03
2.373944e+03,1.229552e+03
2.384551e+03,1.198813e+03
2.395157e+03,1.187679e+03
2.405764e+03,1.180498e+03
2.416370e+03,1.152646e+03
2.426977e+03,1.137014e+03
2.437584e+03,1.142076e+03
2.448190e+03,1.115650e+03
2.458797e+03,1.120830e+03
2.469403e+03,1.093097e+03
2.480010e+03,1.095396e+03
2.490616e+03,1.068830e+03
2.501223e+03,1.049190e+03
2.511830e+03,1.049172e+03
2.522436e+03,1.039030e+03
2.533043e+03,1.017103e+03
2.543649e+03,1.021560e+03
2.554256e+03,1.017201e+03
2.564863e+03,1.012417e+03
2.575469e+03,9.951954e+02
2.586075e+03,9.549644e+02
2.596682e+03,9.652970e+02
2.607289e+03,9.558024e+02
2.617895e+03,9.567726e+02
2.628502e+03,9.244800e+02
2.639108e+03,9.304189e+02
2.649715e+03,9.042164e+02
2.660322e+03,9.061654e+02
2.670928e+03,8.973978e+02
2.681535e+03,8.921530e+02
2.692141e+03,8.940815e+02
2.702748e+03,8.631500e+02
2.713354e+03,8.625818e+02
2.723961e+03,8.701900e+02
2.734568e+03,8.387071e+02
2.745174e+03,8.590157e+02
2.755781e+03,8.377316e+02
2.766387e+03,8.182010e+02
2.776994e+03,8.172903e+02
2.787600e+03,8.040574e+02
2.798207e+03,8.162074e+02
2.808813e+03,8.003773e+02
2.819420e+03,7.974691e+02
2.830027e+03,7.802654e+02
2.840633e+03,7.866082e+02
2.851240e+03,7.794698e+02
2.861846e+03,7.914152e+02
2.872453e+03,7.897256e+02
2.883059e+03,8.039258e+02
2.893666e+03,8.071319e+02
2.904273e+03,8.036942e+02
2.914879e+03,7.724367e+02
2.925486e+03,7.563810e+02
2.936092e+03,7.521887e+02
2.946699e+03,7.594855e+02
2.957305e+03,7.588570e+02
2.967912e+03,7.460157e+02
2.978519e+03,7.111649e+02
2.989125e+03,6.716357e+02
2.999732e+03,6.835983e+02
3.010338e+03,7.284003e+02
3.020945e+03,6.921557e+02
3.031552e+03,6.845643e+02
3.042158e+03,6.745491e+02
3.052764e+03,6.660537e+02
3.063371e+03,7.221664e+02
3.073978e+03,6.936352e+02
3.084584e+03,6.727844e+02
3.095191e+03,6.764551e+02
3.105797e+03,6.444886e+02
3.116404e+03,6.724970e+02
3.127010e+03,6.720720e+02
3.137617e+03,6.534041e+02
3.148224e+03,6.210986e+02
3.158830e+03,7.005087e+02
3.169437e+03,6.373596e+02
3.180043e+03,6.852744e+02
3.190650e+03,6.606375e+02
3.200292e+03,7.005904e+02