Folder: Taff_Bargoed_microplastics_data/RAMAN_data/06022023_r1 (part 5)

File: blue fibre1.CSV
1.995979e+02,7.218718e+03
2.102045e+02,7.359700e+03
2.208110e+02,7.374756e+03
2.314176e+02,7.426317e+03
2.420242e+02,7.489494e+03
2.526307e+02,7.573672e+03
2.632373e+02,7.640528e+03
2.738439e+02,7.695584e+03
2.844504e+02,7.780508e+03
2.950570e+02,7.827441e+03
3.056636e+02,7.862862e+03
3.162701e+02,7.916443e+03
3.268767e+02,8.004913e+03
3.374833e+02,8.042123e+03
3.480898e+02,8.081215e+03
3.586964e+02,8.131222e+03
3.693030e+02,8.182100e+03
3.799095e+02,8.256001e+03
3.905161e+02,8.242610e+03
4.011227e+02,8.292036e+03
4.117292e+02,8.275577e+03
4.223358e+02,8.301660e+03
4.329424e+02,8.323275e+03
4.435490e+02,8.348504e+03
4.541555e+02,8.412633e+03
4.647621e+02,8.404137e+03
4.753687e+02,8.504081e+03
4.859752e+02,8.463052e+03
4.965818e+02,8.460023e+03
5.071884e+02,8.459896e+03
5.177949e+02,8.490909e+03
5.284015e+02,8.450623e+03
5.390081e+02,8.449571e+03
5.496146e+02,8.474448e+03
5.602212e+02,8.477399e+03
5.708278e+02,8.436834e+03
5.814343e+02,8.471966e+03
5.920409e+02,8.462798e+03
6.026475e+02,8.452710e+03
6.132540e+02,8.467645e+03
6.238606e+02,8.458326e+03
6.344672e+02,8.432074e+03
6.450737e+02,8.387394e+03
6.556803e+02,8.390253e+03
6.662869e+02,8.378408e+03
6.768934e+02,8.347899e+03
6.875000e+02,8.314112e+03
6.981066e+02,8.280624e+03
7.087131e+02,8.241946e+03
7.193197e+02,8.240396e+03
7.299263e+02,8.158619e+03
7.405328e+02,8.158100e+03
7.511394e+02,8.133650e+03
7.617460e+02,8.111729e+03
7.723525e+02,8.079162e+03
7.829591e+02,8.025913e+03
7.935657e+02,8.036015e+03
8.041722e+02,8.036765e+03
8.147788e+02,7.957499e+03
8.253854e+02,7.891173e+03
8.359919e+02,7.905261e+03
8.465985e+02,7.871922e+03
8.572051e+02,7.829729e+03
8.678116e+02,7.777865e+03
8.784182e+02,7.776647e+03
8.890248e+02,7.714683e+03
8.996313e+02,7.695821e+03
9.102379e+02,7.652396e+03
9.208445e+02,7.569694e+03
9.314510e+02,7.595115e+03
9.420576e+02,7.529869e+03
9.526642e+02,7.531341e+03
9.632708e+02,7.497284e+03
9.738773e+02,7.439442e+03
9.844839e+02,7.386352e+03
9.950905e+02,7.432773e+03
1.005697e+03,7.365695e+03
1.016304e+03,7.346125e+03
1.026910e+03,7.337935e+03
1.037517e+03,7.320835e+03
1.048123e+03,7.303944e+03
1.058730e+03,7.266117e+03
1.069336e+03,7.263646e+03
1.079943e+03,7.210669e+03
1.090550e+03,7.231669e+03
1.101156e+03,7.197899e+03
1.111763e+03,7.147745e+03
1.122369e+03,7.176565e+03
1.132976e+03,7.158975e+03
1.143582e+03,7.137159e+03
1.154189e+03,7.185875e+03
1.164796e+03,7.126315e+03
1.175402e+03,7.095089e+03
1.186009e+03,7.064147e+03
1.196615e+03,7.062616e+03
1.207222e+03,7.027237e+03
1.217828e+03,7.014081e+03
1.228435e+03,7.029494e+03
1.239042e+03,7.042177e+03
1.249648e+03,7.014349e+03
1.260255e+03,7.020187e+03
1.270861e+03,7.067369e+03
1.281468e+03,7.097452e+03
1.292074e+03,7.085145e+03
1.302681e+03,7.051144e+03
1.313287e+03,7.015950e+03
1.323894e+03,7.184708e+03
1.334501e+03,7.125906e+03
1.345107e+03,7.115764e+03
1.355714e+03,7.232198e+03
1.366320e+03,7.157531e+03
1.376927e+03,7.272667e+03
1.387533e+03,7.142363e+03
1.398140e+03,7.029623e+03
1.408747e+03,7.006834e+03
1.419353e+03,7.024203e+03
1.429960e+03,7.014243e+03
1.440566e+03,6.975580e+03
1.451173e+03,6.961719e+03
1.461779e+03,7.005220e+03
1.472386e+03,7.027411e+03
1.482993e+03,6.982472e+03
1.493599e+03,6.996547e+03
1.504206e+03,7.000989e+03
1.514812e+03,6.946628e+03
1.525419e+03,6.973957e+03
1.536025e+03,6.950344e+03
1.546632e+03,6.977548e+03
1.557239e+03,6.966620e+03
1.567845e+03,6.961906e+03
1.578452e+03,6.930126e+03
1.589058e+03,6.925644e+03
1.599665e+03,6.971913e+03
1.610271e+03,6.942713e+03
1.620878e+03,6.921390e+03
1.631484e+03,6.904127e+03
1.642091e+03,6.866083e+03
1.652698e+03,6.848042e+03
1.663304e+03,6.866187e+03
1.673911e+03,6.846187e+03
1.684517e+03,6.792862e+03
1.695124e+03,6.816626e+03
1.705730e+03,6.791755e+03
1.716337e+03,6.742164e+03
1.726944e+03,6.745548e+03
1.737550e+03,6.716233e+03
1.748157e+03,6.684135e+03
1.758763e+03,6.701366e+03
1.769370e+03,6.638940e+03
1.779976e+03,6.621910e+03
1.790583e+03,6.597113e+03
1.801190e+03,6.594548e+03
1.811796e+03,6.560556e+03
1.822403e+03,6.513483e+03
1.833009e+03,6.492123e+03
1.843616e+03,6.467908e+03
1.854222e+03,6.419199e+03
1.864829e+03,6.383588e+03
1.875436e+03,6.337755e+03
1.886042e+03,6.312016e+03
1.896649e+03,6.274909e+03
1.907255e+03,6.274594e+03
1.917862e+03,6.197472e+03
1.928468e+03,6.185294e+03
1.939075e+03,6.135808e+03
1.949682e+03,6.094760e+03
1.960288e+03,6.078478e+03
1.970895e+03,6.040729e+03
1.981501e+03,6.007258e+03
1.992108e+03,5.930114e+03
2.002714e+03,5.930909e+03
2.013321e+03,5.856037e+03
2.023927e+03,5.831821e+03
2.034534e+03,5.816884e+03
2.045141e+03,5.736383e+03
2.055747e+03,5.679319e+03
2.066354e+03,5.692330e+03
2.076960e+03,5.621274e+03
2.087567e+03,5.584276e+03
2.098173e+03,5.574011e+03
2.108780e+03,5.513745e+03
2.119387e+03,5.424524e+03
2.129993e+03,5.377618e+03
2.140600e+03,5.360539e+03
2.151206e+03,5.345856e+03
2.161813e+03,5.270712e+03
2.172419e+03,5.250530e+03
2.183026e+03,5.174018e+03
2.193633e+03,5.114262e+03
2.204239e+03,5.129465e+03
2.214846e+03,5.019326e+03
2.225452e+03,4.988341e+03
2.236059e+03,4.932820e+03
2.246666e+03,4.910372e+03
2.257272e+03,4.843783e+03
2.267879e+03,4.814546e+03
2.278485e+03,4.792367e+03
2.289092e+03,4.719616e+03
2.299698e+03,4.693433e+03
2.310305e+03,4.665619e+03
2.320911e+03,4.620907e+03
2.331518e+03,4.581266e+03
2.342125e+03,4.522035e+03
2.352731e+03,4.495084e+03
2.363338e+03,4.486365e+03
2.373944e+03,4.459772e+03
2.384551e+03,4.409827e+03
2.395157e+03,4.360534e+03
2.405764e+03,4.350271e+03
2.416370e+03,4.308485e+03
2.426977e+03,4.266695e+03
2.437584e+03,4.210992e+03
2.448190e+03,4.180244e+03
2.458797e+03,4.149957e+03
2.469403e+03,4.127859e+03
2.480010e+03,4.105753e+03
2.490616e+03,4.079400e+03
2.501223e+03,4.076936e+03
2.511830e+03,4.033584e+03
2.522436e+03,3.973526e+03
2.533043e+03,3.965476e+03
2.543649e+03,3.945780e+03
2.554256e+03,3.907059e+03
2.564863e+03,3.900874e+03
2.575469e+03,3.852993e+03
2.586075e+03,3.778137e+03
2.596682e+03,3.810789e+03
2.607289e+03,3.757847e+03
2.617895e+03,3.718457e+03
2.628502e+03,3.734529e+03
2.639108e+03,3.736707e+03
2.649715e+03,3.707610e+03
2.660322e+03,3.630447e+03
2.670928e+03,3.626988e+03
2.681535e+03,3.652706e+03
2.692141e+03,3.582311e+03
2.702748e+03,3.583353e+03
2.713354e+03,3.584382e+03
2.723961e+03,3.553228e+03
2.734568e+03,3.503545e+03
2.745174e+03,3.471951e+03
2.755781e+03,3.472566e+03
2.766387e+03,3.432748e+03
2.776994e+03,3.405693e+03
2.787600e+03,3.386524e+03
2.798207e+03,3.391896e+03
2.808813e+03,3.355219e+03
2.819420e+03,3.368081e+03
2.830027e+03,3.324359e+03
2.840633e+03,3.353854e+03
2.851240e+03,3.321394e+03
2.861846e+03,3.295927e+03
2.872453e+03,3.258580e+03
2.883059e+03,3.254691e+03
2.893666e+03,3.277193e+03
2.904273e+03,3.262285e+03
2.914879e+03,3.175368e+03
2.925486e+03,3.127121e+03
2.936092e+03,3.165211e+03
2.946699e+03,3.165996e+03
2.957305e+03,3.176500e+03
2.967912e+03,3.106488e+03
2.978519e+03,3.081688e+03
2.989125e+03,3.073188e+03
2.999732e+03,3.029017e+03
3.010338e+03,3.016040e+03
3.020945e+03,3.013113e+03
3.031552e+03,3.007414e+03
3.042158e+03,3.000734e+03
3.052764e+03,2.943673e+03
3.063371e+03,2.924443e+03
3.073978e+03,2.913129e+03
3.084584e+03,2.947702e+03
3.095191e+03,2.914534e+03
3.105797e+03,2.889543e+03
3.116404e+03,2.920095e+03
3.127010e+03,2.864725e+03
3.137617e+03,2.939753e+03
3.148224e+03,2.909224e+03
3.158830e+03,2.830983e+03
3.169437e+03,2.878140e+03
3.180043e+03,2.779945e+03
3.190650e+03,2.789322e+03
3.200292e+03,2.885203e+03

File: blue fibre2.CSV
1.995979e+02,1.067968e+03
2.102045e+02,1.064823e+03
2.208110e+02,1.074699e+03
2.314176e+02,1.078123e+03
2.420242e+02,1.075817e+03
2.526307e+02,1.080230e+03
2.632373e+02,1.080086e+03
2.738439e+02,1.088831e+03
2.844504e+02,1.085584e+03
2.950570e+02,1.084247e+03
3.056636e+02,1.084501e+03
3.162701e+02,1.096708e+03
3.268767e+02,1.096334e+03
3.374833e+02,1.088168e+03
3.480898e+02,1.091927e+03
3.586964e+02,1.081423e+03
3.693030e+02,1.097170e+03
3.799095e+02,1.113620e+03
3.905161e+02,1.082958e+03
4.011227e+02,1.074998e+03
4.117292e+02,1.073916e+03
4.223358e+02,1.073718e+03
4.329424e+02,1.089738e+03
4.435490e+02,1.068963e+03
4.541555e+02,1.081661e+03
4.647621e+02,1.050633e+03
4.753687e+02,1.043149e+03
4.859752e+02,1.049216e+03
4.965818e+02,1.050661e+03
5.071884e+02,1.039198e+03
5.177949e+02,1.042994e+03
5.284015e+02,1.024253e+03
5.390081e+02,1.027381e+03
5.496146e+02,1.023115e+03
5.602212e+02,1.019420e+03
5.708278e+02,1.008085e+03
5.814343e+02,1.018138e+03
5.920409e+02,1.011438e+03
6.026475e+02,1.004152e+03
6.132540e+02,9.914128e+02
6.238606e+02,9.877870e+02
6.344672e+02,9.969373e+02
6.450737e+02,9.646445e+02
6.556803e+02,9.703754e+02
6.662869e+02,9.726080e+02
6.768934e+02,9.641025e+02
6.875000e+02,9.546580e+02
6.981066e+02,9.548782e+02
7.087131e+02,9.477521e+02
7.193197e+02,9.433669e+02
7.299263e+02,9.356631e+02
7.405328e+02,9.275697e+02
7.511394e+02,9.251136e+02
7.617460e+02,9.103811e+02
7.723525e+02,9.176215e+02
7.829591e+02,9.116199e+02
7.935657e+02,9.037692e+02
8.041722e+02,9.018915e+02
8.147788e+02,8.914122e+02
8.253854e+02,8.911313e+02
8.359919e+02,8.700245e+02
8.465985e+02,8.735534e+02
8.572051e+02,8.759998e+02
8.678116e+02,8.703511e+02
8.784182e+02,8.700552e+02
8.890248e+02,8.575510e+02
8.996313e+02,8.477795e+02
9.102379e+02,8.421378e+02
9.208445e+02,8.314260e+02
9.314510e+02,8.330587e+02
9.420576e+02,8.291899e+02
9.526642e+02,8.207598e+02
9.632708e+02,8.193653e+02
9.738773e+02,8.087872e+02
9.844839e+02,8.127144e+02
9.950905e+02,8.155126e+02
1.005697e+03,7.990146e+02
1.016304e+03,7.849329e+02
1.026910e+03,7.912316e+02
1.037517e+03,7.870765e+02
1.048123e+03,7.711707e+02
1.058730e+03,7.772647e+02
1.069336e+03,7.838242e+02
1.079943e+03,7.706552e+02
1.090550e+03,7.998858e+02
1.101156e+03,7.788049e+02
1.111763e+03,7.819345e+02
1.122369e+03,7.793688e+02
1.132976e+03,7.514316e+02
1.143582e+03,7.478826e+02
1.154189e+03,7.421580e+02
1.164796e+03,7.293043e+02
1.175402e+03,7.229742e+02
1.186009e+03,7.086691e+02
1.196615e+03,7.103935e+02
1.207222e+03,7.024605e+02
1.217828e+03,6.960055e+02
1.228435e+03,7.001103e+02
1.239042e+03,6.944252e+02
1.249648e+03,6.867164e+02
1.260255e+03,6.958531e+02
1.270861e+03,6.848995e+02
1.281468e+03,6.764759e+02
1.292074e+03,6.806096e+02
1.302681e+03,6.807529e+02
1.313287e+03,6.713013e+02
1.323894e+03,6.761074e+02
1.334501e+03,6.797038e+02
1.345107e+03,6.653948e+02
1.355714e+03,6.583298e+02
1.366320e+03,6.679055e+02
1.376927e+03,6.649198e+02
1.387533e+03,6.469716e+02
1.398140e+03,6.457949e+02
1.408747e+03,6.395345e+02
1.419353e+03,6.376993e+02
1.429960e+03,6.306082e+02
1.440566e+03,6.241991e+02
1.451173e+03,6.122459e+02
1.461779e+03,6.211367e+02
1.472386e+03,6.145253e+02
1.482993e+03,6.040998e+02
1.493599e+03,6.063544e+02
1.504206e+03,6.046698e+02
1.514812e+03,5.901812e+02
1.525419e+03,5.897259e+02
1.536025e+03,5.927558e+02
1.546632e+03,5.799822e+02
1.557239e+03,5.830511e+02
1.567845e+03,5.837632e+02
1.578452e+03,5.728227e+02
1.589058e+03,5.729686e+02
1.599665e+03,5.657263e+02
1.610271e+03,5.601330e+02
1.620878e+03,5.656242e+02
1.631484e+03,5.552623e+02
1.642091e+03,5.526574e+02
1.652698e+03,5.576363e+02
1.663304e+03,5.449993e+02
1.673911e+03,5.386080e+02
1.684517e+03,5.369444e+02
1.695124e+03,5.363835e+02
1.705730e+03,5.387855e+02
1.716337e+03,5.250801e+02
1.726944e+03,5.172560e+02
1.737550e+03,5.129815e+02
1.748157e+03,5.081768e+02
1.758763e+03,5.100258e+02
1.769370e+03,5.008101e+02
1.779976e+03,4.996515e+02
1.790583e+03,4.963770e+02
1.801190e+03,4.960576e+02
1.811796e+03,4.951107e+02
1.822403e+03,4.861025e+02
1.833009e+03,4.778438e+02
1.843616e+03,4.767749e+02
1.854222e+03,4.671518e+02
1.864829e+03,4.703533e+02
1.875436e+03,4.658911e+02
1.886042e+03,4.621257e+02
1.896649e+03,4.469140e+02
1.907255e+03,4.574340e+02
1.917862e+03,4.415667e+02
1.928468e+03,4.278110e+02
1.939075e+03,4.333532e+02
1.949682e+03,4.413283e+02
1.960288e+03,4.254755e+02
1.970895e+03,4.207745e+02
1.981501e+03,4.255309e+02
1.992108e+03,4.248089e+02
2.002714e+03,4.135760e+02
2.013321e+03,4.065441e+02
2.023927e+03,4.056228e+02
2.034534e+03,4.042150e+02
2.045141e+03,3.963271e+02
2.055747e+03,3.800050e+02
2.066354e+03,3.795414e+02
2.076960e+03,3.830734e+02
2.087567e+03,3.809711e+02
2.098173e+03,3.819844e+02
2.108780e+03,3.687975e+02
2.119387e+03,3.691103e+02
2.129993e+03,3.595745e+02
2.140600e+03,3.586495e+02
2.151206e+03,3.590262e+02
2.161813e+03,3.518018e+02
2.172419e+03,3.501587e+02
2.183026e+03,3.483148e+02
2.193633e+03,3.306501e+02
2.204239e+03,3.326944e+02
2.214846e+03,3.283135e+02
2.225452e+03,3.329854e+02
2.236059e+03,3.321253e+02
2.246666e+03,3.238814e+02
2.257272e+03,3.171928e+02
2.267879e+03,3.127280e+02
2.278485e+03,3.121206e+02
2.289092e+03,3.083037e+02
2.299698e+03,3.073039e+02
2.310305e+03,2.916095e+02
2.320911e+03,2.935818e+02
2.331518e+03,2.903267e+02
2.342125e+03,2.867010e+02
2.352731e+03,2.938188e+02
2.363338e+03,2.835161e+02
2.373944e+03,2.849427e+02
2.384551e+03,2.781217e+02
2.395157e+03,2.744241e+02
2.405764e+03,2.775686e+02
2.416370e+03,2.685022e+02
2.426977e+03,2.706408e+02
2.437584e+03,2.629154e+02
2.448190e+03,2.569444e+02
2.458797e+03,2.570880e+02
2.469403e+03,2.569256e+02
2.480010e+03,2.535209e+02
2.490616e+03,2.495277e+02
2.501223e+03,2.509833e+02
2.511830e+03,2.423277e+02
2.522436e+03,2.408876e+02
2.533043e+03,2.413148e+02
2.543649e+03,2.458986e+02
2.554256e+03,2.565990e+02
2.564863e+03,2.409178e+02
2.575469e+03,2.450064e+02
2.586075e+03,2.333498e+02
2.596682e+03,2.252007e+02
2.607289e+03,2.254693e+02
2.617895e+03,2.233254e+02
2.628502e+03,2.292608e+02
2.639108e+03,2.267024e+02
2.649715e+03,2.204662e+02
2.660322e+03,2.163142e+02
2.670928e+03,2.073598e+02
2.681535e+03,2.120707e+02
2.692141e+03,2.113587e+02
2.702748e+03,2.094430e+02
2.713354e+03,2.206618e+02
2.723961e+03,2.191815e+02
2.734568e+03,2.079591e+02
2.745174e+03,2.036327e+02
2.755781e+03,2.093481e+02
2.766387e+03,1.934170e+02
2.776994e+03,1.985180e+02
2.787600e+03,1.949199e+02
2.798207e+03,2.070193e+02
2.808813e+03,2.111595e+02
2.819420e+03,1.945349e+02
2.830027e+03,2.066315e+02
2.840633e+03,2.072414e+02
2.851240e+03,2.038289e+02
2.861846e+03,2.116680e+02
2.872453e+03,2.198074e+02
2.883059e+03,2.397168e+02
2.893666e+03,2.556651e+02
2.904273e+03,2.388364e+02
2.914879e+03,2.267420e+02
2.925486e+03,1.993814e+02
2.936092e+03,2.173181e+02
2.946699e+03,2.115652e+02
2.957305e+03,2.589779e+02
2.967912e+03,2.003140e+02
2.978519e+03,1.932392e+02
2.989125e+03,1.764597e+02
2.999732e+03,1.731027e+02
3.010338e+03,1.920345e+02
3.020945e+03,1.750850e+02
3.031552e+03,1.711180e+02
3.042158e+03,1.977456e+02
3.052764e+03,1.805767e+02
3.063371e+03,1.622486e+02
3.073978e+03,1.719272e+02
3.084584e+03,1.721452e+02
3.095191e+03,1.781106e+02
3.105797e+03,1.659495e+02
3.116404e+03,1.783960e+02
3.127010e+03,1.616319e+02
3.137617e+03,2.059098e+02
3.148224e+03,1.678432e+02
3.158830e+03,1.912231e+02
3.169437e+03,1.915550e+02
3.180043e+03,1.879691e+02
3.190650e+03,1.554657e+02
3.200292e+03,2.102951e+02

File: blue frag1.CSV
1.995979e+02,2.935258e+03
2.102045e+02,2.954632e+03
2.208110e+02,2.957847e+03
2.314176e+02,2.946915e+03
2.420242e+02,2.944087e+03
2.526307e+02,2.958308e+03
2.632373e+02,2.945398e+03
2.738439e+02,2.947391e+03
2.844504e+02,2.962928e+03
2.950570e+02,2.933268e+03
3.056636e+02,2.914326e+03
3.162701e+02,2.927554e+03
3.268767e+02,2.917343e+03
3.374833e+02,2.909335e+03
3.480898e+02,2.909125e+03
3.586964e+02,2.880573e+03
3.693030e+02,2.880910e+03
3.799095e+02,2.886340e+03
3.905161e+02,2.856577e+03
4.011227e+02,2.854646e+03
4.117292e+02,2.830365e+03
4.223358e+02,2.832767e+03
4.329424e+02,2.819726e+03
4.435490e+02,2.801087e+03
4.541555e+02,2.786694e+03
4.647621e+02,2.754213e+03
4.753687e+02,2.758202e+03
4.859752e+02,2.736057e+03
4.965818e+02,2.730366e+03
5.071884e+02,2.711903e+03
5.177949e+02,2.708469e+03
5.284015e+02,2.685129e+03
5.390081e+02,2.664907e+03
5.496146e+02,2.663227e+03
5.602212e+02,2.638769e+03
5.708278e+02,2.613331e+03
5.814343e+02,2.620101e+03
5.920409e+02,2.631965e+03
6.026475e+02,2.602548e+03
6.132540e+02,2.583828e+03
6.238606e+02,2.558993e+03
6.344672e+02,2.560160e+03
6.450737e+02,2.523967e+03
6.556803e+02,2.519633e+03
6.662869e+02,2.507999e+03
6.768934e+02,2.546591e+03
6.875000e+02,2.523991e+03
6.981066e+02,2.491298e+03
7.087131e+02,2.459137e+03
7.193197e+02,2.444699e+03
7.299263e+02,2.433970e+03
7.405328e+02,2.503091e+03
7.511394e+02,2.414638e+03
7.617460e+02,2.403044e+03
7.723525e+02,2.423048e+03
7.829591e+02,2.360676e+03
7.935657e+02,2.346327e+03
8.041722e+02,2.330281e+03
8.147788e+02,2.336386e+03
8.253854e+02,2.314687e+03
8.359919e+02,2.301355e+03
8.465985e+02,2.273280e+03
8.572051e+02,2.270938e+03
8.678116e+02,2.251728e+03
8.784182e+02,2.250556e+03
8.890248e+02,2.232402e+03
8.996313e+02,2.214411e+03
9.102379e+02,2.193137e+03
9.208445e+02,2.171013e+03
9.314510e+02,2.168565e+03
9.420576e+02,2.151024e+03
9.526642e+02,2.142611e+03
9.632708e+02,2.145723e+03
9.738773e+02,2.120998e+03
9.844839e+02,2.108083e+03
9.950905e+02,2.099579e+03
1.005697e+03,2.088064e+03
1.016304e+03,2.072036e+03
1.026910e+03,2.067680e+03
1.037517e+03,2.068971e+03
1.048123e+03,2.054274e+03
1.058730e+03,2.036427e+03
1.069336e+03,2.034163e+03
1.079943e+03,2.027388e+03
1.090550e+03,2.047659e+03
1.101156e+03,2.022261e+03
1.111763e+03,2.001727e+03
1.122369e+03,2.003776e+03
1.132976e+03,1.992933e+03
1.143582e+03,1.985852e+03
1.154189e+03,1.969612e+03
1.164796e+03,1.947820e+03
1.175402e+03,1.950729e+03
1.186009e+03,1.942778e+03
1.196615e+03,1.942469e+03
1.207222e+03,1.972385e+03
1.217828e+03,1.933299e+03
1.228435e+03,1.920186e+03
1.239042e+03,1.894188e+03
1.249648e+03,1.872572e+03
1.260255e+03,1.889066e+03
1.270861e+03,1.915699e+03
1.281468e+03,1.942295e+03
1.292074e+03,1.923340e+03
1.302681e+03,1.888384e+03
1.313287e+03,1.890267e+03
1.323894e+03,1.901710e+03
1.334501e+03,1.984002e+03
1.345107e+03,1.893948e+03
1.355714e+03,1.870210e+03
1.366320e+03,1.860008e+03
1.376927e+03,1.834639e+03
1.387533e+03,1.827012e+03
1.398140e+03,1.829579e+03
1.408747e+03,1.802556e+03
1.419353e+03,1.814714e+03
1.429960e+03,1.804005e+03
1.440566e+03,1.809785e+03
1.451173e+03,1.818456e+03
1.461779e+03,1.789947e+03
1.472386e+03,1.787604e+03
1.482993e+03,1.767727e+03
1.493599e+03,1.762916e+03
1.504206e+03,1.787682e+03
1.514812e+03,1.808360e+03
1.525419e+03,1.972270e+03
1.536025e+03,1.916982e+03
1.546632e+03,1.775789e+03
1.557239e+03,1.762120e+03
1.567845e+03,1.729138e+03
1.578452e+03,1.717054e+03
1.589058e+03,1.716558e+03
1.599665e+03,1.700326e+03
1.610271e+03,1.696456e+03
1.620878e+03,1.694754e+03
1.631484e+03,1.672915e+03
1.642091e+03,1.660238e+03
1.652698e+03,1.668328e+03
1.663304e+03,1.660719e+03
1.673911e+03,1.651229e+03
1.684517e+03,1.650074e+03
1.695124e+03,1.650363e+03
1.705730e+03,1.640488e+03
1.716337e+03,1.633349e+03
1.726944e+03,1.619793e+03
1.737550e+03,1.624080e+03
1.748157e+03,1.611514e+03
1.758763e+03,1.609630e+03
1.769370e+03,1.600734e+03
1.779976e+03,1.596965e+03
1.790583e+03,1.582629e+03
1.801190e+03,1.608695e+03
1.811796e+03,1.586119e+03
1.822403e+03,1.581884e+03
1.833009e+03,1.584215e+03
1.843616e+03,1.571587e+03
1.854222e+03,1.559875e+03
1.864829e+03,1.566461e+03
1.875436e+03,1.560795e+03
1.886042e+03,1.551232e+03
1.896649e+03,1.546193e+03
1.907255e+03,1.540823e+03
1.917862e+03,1.532833e+03
1.928468e+03,1.532802e+03
1.939075e+03,1.539084e+03
1.949682e+03,1.517845e+03
1.960288e+03,1.517949e+03
1.970895e+03,1.506209e+03
1.981501e+03,1.507168e+03
1.992108e+03,1.509618e+03
2.002714e+03,1.504566e+03
2.013321e+03,1.495010e+03
2.023927e+03,1.493715e+03
2.034534e+03,1.496980e+03
2.045141e+03,1.474355e+03
2.055747e+03,1.470560e+03
2.066354e+03,1.472318e+03
2.076960e+03,1.476033e+03
2.087567e+03,1.460962e+03
2.098173e+03,1.472776e+03
2.108780e+03,1.455317e+03
2.119387e+03,1.459161e+03
2.129993e+03,1.441334e+03
2.140600e+03,1.443908e+03
2.151206e+03,1.425440e+03
2.161813e+03,1.426701e+03
2.172419e+03,1.409071e+03
2.183026e+03,1.410141e+03
2.193633e+03,1.419658e+03
2.204239e+03,1.397962e+03
2.214846e+03,1.409438e+03
2.225452e+03,1.374818e+03
2.236059e+03,1.368435e+03
2.246666e+03,1.367554e+03
2.257272e+03,1.378636e+03
2.267879e+03,1.365614e+03
2.278485e+03,1.362917e+03
2.289092e+03,1.356586e+03
2.299698e+03,1.341519e+03
2.310305e+03,1.328237e+03
2.320911e+03,1.329988e+03
2.331518e+03,1.315577e+03
2.342125e+03,1.313160e+03
2.352731e+03,1.284404e+03
2.363338e+03,1.294911e+03
2.373944e+03,1.293714e+03
2.384551e+03,1.290893e+03
2.395157e+03,1.271224e+03
2.405764e+03,1.278507e+03
2.416370e+03,1.261495e+03
2.426977e+03,1.275738e+03
2.437584e+03,1.241690e+03
2.448190e+03,1.265462e+03
2.458797e+03,1.232890e+03
2.469403e+03,1.240524e+03
2.480010e+03,1.242562e+03
2.490616e+03,1.225437e+03
2.501223e+03,1.212107e+03
2.511830e+03,1.200424e+03
2.522436e+03,1.219455e+03
2.533043e+03,1.173151e+03
2.543649e+03,1.195374e+03
2.554256e+03,1.189010e+03
2.564863e+03,1.177282e+03
2.575469e+03,1.186782e+03
2.586075e+03,1.149227e+03
2.596682e+03,1.162466e+03
2.607289e+03,1.129635e+03
2.617895e+03,1.137600e+03
2.628502e+03,1.138759e+03
2.639108e+03,1.142593e+03
2.649715e+03,1.119084e+03
2.660322e+03,1.107887e+03
2.670928e+03,1.116821e+03
2.681535e+03,1.116918e+03
2.692141e+03,1.090303e+03
2.702748e+03,1.108934e+03
2.713354e+03,1.093912e+03
2.723961e+03,1.078863e+03
2.734568e+03,1.066433e+03
2.745174e+03,1.080233e+03
2.755781e+03,1.060479e+03
2.766387e+03,1.058291e+03
2.776994e+03,1.042634e+03
2.787600e+03,1.051314e+03
2.798207e+03,1.041019e+03
2.808813e+03,1.040283e+03
2.819420e+03,1.033189e+03
2.830027e+03,1.029624e+03
2.840633e+03,1.041724e+03
2.851240e+03,1.051842e+03
2.861846e+03,1.032054e+03
2.872453e+03,1.001970e+03
2.883059e+03,1.010640e+03
2.893666e+03,1.038809e+03
2.904273e+03,1.019137e+03
2.914879e+03,1.006096e+03
2.925486e+03,1.027829e+03
2.936092e+03,1.015629e+03
2.946699e+03,1.015763e+03
2.957305e+03,1.042869e+03
2.967912e+03,9.844655e+02
2.978519e+03,9.978382e+02
2.989125e+03,9.688934e+02
2.999732e+03,9.425646e+02
3.010338e+03,9.499703e+02
3.020945e+03,9.547908e+02
3.031552e+03,9.609872e+02
3.042158e+03,9.827515e+02
3.052764e+03,9.591688e+02
3.063371e+03,9.515629e+02
3.073978e+03,9.460098e+02
3.084584e+03,9.177542e+02
3.095191e+03,9.519744e+02
3.105797e+03,9.223251e+02
3.116404e+03,9.768363e+02
3.127010e+03,9.937050e+02
3.137617e+03,9.946900e+02
3.148224e+03,9.013328e+02
3.158830e+03,9.408567e+02
3.169437e+03,9.862055e+02
3.180043e+03,9.761860e+02
3.190650e+03,9.593522e+02
3.200292e+03,1.020078e+03