Folder: Taff_Bargoed_microplastics_data/RAMAN_data/06022023_r1 (part 4)

File: black fibre11.CSV
1.995979e+02,7.086858e+03
2.102045e+02,7.198859e+03
2.208110e+02,7.227564e+03
2.314176e+02,7.269881e+03
2.420242e+02,7.308797e+03
2.526307e+02,7.399900e+03
2.632373e+02,7.481670e+03
2.738439e+02,7.548978e+03
2.844504e+02,7.657072e+03
2.950570e+02,7.659927e+03
3.056636e+02,7.714567e+03
3.162701e+02,7.785931e+03
3.268767e+02,7.837796e+03
3.374833e+02,7.883124e+03
3.480898e+02,7.943857e+03
3.586964e+02,8.000445e+03
3.693030e+02,8.034944e+03
3.799095e+02,8.078545e+03
3.905161e+02,8.138075e+03
4.011227e+02,8.156139e+03
4.117292e+02,8.167964e+03
4.223358e+02,8.210418e+03
4.329424e+02,8.260037e+03
4.435490e+02,8.263633e+03
4.541555e+02,8.346854e+03
4.647621e+02,8.392164e+03
4.753687e+02,8.377372e+03
4.859752e+02,8.402708e+03
4.965818e+02,8.428595e+03
5.071884e+02,8.421394e+03
5.177949e+02,8.495049e+03
5.284015e+02,8.470281e+03
5.390081e+02,8.475235e+03
5.496146e+02,8.495019e+03
5.602212e+02,8.515564e+03
5.708278e+02,8.490092e+03
5.814343e+02,8.568792e+03
5.920409e+02,8.605622e+03
6.026475e+02,8.593716e+03
6.132540e+02,8.568544e+03
6.238606e+02,8.597150e+03
6.344672e+02,8.612971e+03
6.450737e+02,8.566961e+03
6.556803e+02,8.588050e+03
6.662869e+02,8.583466e+03
6.768934e+02,8.585353e+03
6.875000e+02,8.574949e+03
6.981066e+02,8.575279e+03
7.087131e+02,8.554854e+03
7.193197e+02,8.523229e+03
7.299263e+02,8.544097e+03
7.405328e+02,8.539502e+03
7.511394e+02,8.502104e+03
7.617460e+02,8.526520e+03
7.723525e+02,8.458741e+03
7.829591e+02,8.474265e+03
7.935657e+02,8.494832e+03
8.041722e+02,8.489128e+03
8.147788e+02,8.442607e+03
8.253854e+02,8.428393e+03
8.359919e+02,8.418149e+03
8.465985e+02,8.419582e+03
8.572051e+02,8.439397e+03
8.678116e+02,8.357026e+03
8.784182e+02,8.360709e+03
8.890248e+02,8.377592e+03
8.996313e+02,8.329516e+03
9.102379e+02,8.274421e+03
9.208445e+02,8.230188e+03
9.314510e+02,8.256170e+03
9.420576e+02,8.271134e+03
9.526642e+02,8.164409e+03
9.632708e+02,8.166991e+03
9.738773e+02,8.137853e+03
9.844839e+02,8.125560e+03
9.950905e+02,8.112878e+03
1.005697e+03,8.098135e+03
1.016304e+03,8.052140e+03
1.026910e+03,8.060922e+03
1.037517e+03,8.048452e+03
1.048123e+03,8.019511e+03
1.058730e+03,8.000942e+03
1.069336e+03,7.965068e+03
1.079943e+03,7.934580e+03
1.090550e+03,7.962833e+03
1.101156e+03,7.911893e+03
1.111763e+03,7.886022e+03
1.122369e+03,7.894148e+03
1.132976e+03,7.890264e+03
1.143582e+03,7.857155e+03
1.154189e+03,7.887603e+03
1.164796e+03,7.845174e+03
1.175402e+03,7.763299e+03
1.186009e+03,7.737567e+03
1.196615e+03,7.735623e+03
1.207222e+03,7.689948e+03
1.217828e+03,7.668323e+03
1.228435e+03,7.703329e+03
1.239042e+03,7.677170e+03
1.249648e+03,7.625456e+03
1.260255e+03,7.640009e+03
1.270861e+03,7.665472e+03
1.281468e+03,7.638569e+03
1.292074e+03,7.592397e+03
1.302681e+03,7.591319e+03
1.313287e+03,7.567570e+03
1.323894e+03,7.585119e+03
1.334501e+03,7.577803e+03
1.345107e+03,7.569015e+03
1.355714e+03,7.689126e+03
1.366320e+03,7.614477e+03
1.376927e+03,7.654817e+03
1.387533e+03,7.496224e+03
1.398140e+03,7.420609e+03
1.408747e+03,7.347426e+03
1.419353e+03,7.332158e+03
1.429960e+03,7.297477e+03
1.440566e+03,7.283534e+03
1.451173e+03,7.287350e+03
1.461779e+03,7.265028e+03
1.472386e+03,7.256845e+03
1.482993e+03,7.224869e+03
1.493599e+03,7.214178e+03
1.504206e+03,7.149952e+03
1.514812e+03,7.119425e+03
1.525419e+03,7.087010e+03
1.536025e+03,7.055274e+03
1.546632e+03,7.077944e+03
1.557239e+03,7.065442e+03
1.567845e+03,7.036759e+03
1.578452e+03,6.981169e+03
1.589058e+03,6.982278e+03
1.599665e+03,6.972188e+03
1.610271e+03,6.918530e+03
1.620878e+03,6.919339e+03
1.631484e+03,6.876482e+03
1.642091e+03,6.846093e+03
1.652698e+03,6.795135e+03
1.663304e+03,6.759908e+03
1.673911e+03,6.726699e+03
1.684517e+03,6.704690e+03
1.695124e+03,6.679085e+03
1.705730e+03,6.661514e+03
1.716337e+03,6.614092e+03
1.726944e+03,6.573772e+03
1.737550e+03,6.530813e+03
1.748157e+03,6.536128e+03
1.758763e+03,6.485395e+03
1.769370e+03,6.450084e+03
1.779976e+03,6.428911e+03
1.790583e+03,6.361833e+03
1.801190e+03,6.366481e+03
1.811796e+03,6.323674e+03
1.822403e+03,6.299105e+03
1.833009e+03,6.278019e+03
1.843616e+03,6.247161e+03
1.854222e+03,6.177430e+03
1.864829e+03,6.171837e+03
1.875436e+03,6.127542e+03
1.886042e+03,6.102889e+03
1.896649e+03,6.028141e+03
1.907255e+03,6.042042e+03
1.917862e+03,5.969917e+03
1.928468e+03,5.936375e+03
1.939075e+03,5.917557e+03
1.949682e+03,5.853942e+03
1.960288e+03,5.837708e+03
1.970895e+03,5.794057e+03
1.981501e+03,5.768011e+03
1.992108e+03,5.718623e+03
2.002714e+03,5.706870e+03
2.013321e+03,5.660070e+03
2.023927e+03,5.621693e+03
2.034534e+03,5.615384e+03
2.045141e+03,5.545390e+03
2.055747e+03,5.473547e+03
2.066354e+03,5.464123e+03
2.076960e+03,5.418656e+03
2.087567e+03,5.398786e+03
2.098173e+03,5.369854e+03
2.108780e+03,5.351170e+03
2.119387e+03,5.289908e+03
2.129993e+03,5.226686e+03
2.140600e+03,5.209320e+03
2.151206e+03,5.188789e+03
2.161813e+03,5.124532e+03
2.172419e+03,5.083033e+03
2.183026e+03,5.053752e+03
2.193633e+03,5.047505e+03
2.204239e+03,4.982139e+03
2.214846e+03,4.953446e+03
2.225452e+03,4.881486e+03
2.236059e+03,4.853768e+03
2.246666e+03,4.816359e+03
2.257272e+03,4.775771e+03
2.267879e+03,4.758046e+03
2.278485e+03,4.700360e+03
2.289092e+03,4.686252e+03
2.299698e+03,4.676401e+03
2.310305e+03,4.605284e+03
2.320911e+03,4.575031e+03
2.331518e+03,4.569285e+03
2.342125e+03,4.521804e+03
2.352731e+03,4.459787e+03
2.363338e+03,4.459007e+03
2.373944e+03,4.422870e+03
2.384551e+03,4.367557e+03
2.395157e+03,4.378772e+03
2.405764e+03,4.349038e+03
2.416370e+03,4.266828e+03
2.426977e+03,4.270112e+03
2.437584e+03,4.239712e+03
2.448190e+03,4.216020e+03
2.458797e+03,4.179979e+03
2.469403e+03,4.137333e+03
2.480010e+03,4.144307e+03
2.490616e+03,4.079543e+03
2.501223e+03,4.065691e+03
2.511830e+03,4.034397e+03
2.522436e+03,4.020543e+03
2.533043e+03,4.005908e+03
2.543649e+03,3.976366e+03
2.554256e+03,3.936694e+03
2.564863e+03,3.903118e+03
2.575469e+03,3.910177e+03
2.586075e+03,3.887362e+03
2.596682e+03,3.834456e+03
2.607289e+03,3.802848e+03
2.617895e+03,3.803433e+03
2.628502e+03,3.735888e+03
2.639108e+03,3.750144e+03
2.649715e+03,3.726857e+03
2.660322e+03,3.718040e+03
2.670928e+03,3.694715e+03
2.681535e+03,3.687012e+03
2.692141e+03,3.632178e+03
2.702748e+03,3.628349e+03
2.713354e+03,3.583448e+03
2.723961e+03,3.574918e+03
2.734568e+03,3.563803e+03
2.745174e+03,3.530793e+03
2.755781e+03,3.481347e+03
2.766387e+03,3.491068e+03
2.776994e+03,3.485391e+03
2.787600e+03,3.446307e+03
2.798207e+03,3.412805e+03
2.808813e+03,3.405656e+03
2.819420e+03,3.391368e+03
2.830027e+03,3.422730e+03
2.840633e+03,3.352683e+03
2.851240e+03,3.361556e+03
2.861846e+03,3.320692e+03
2.872453e+03,3.317704e+03
2.883059e+03,3.310756e+03
2.893666e+03,3.317761e+03
2.904273e+03,3.282066e+03
2.914879e+03,3.243797e+03
2.925486e+03,3.235520e+03
2.936092e+03,3.250286e+03
2.946699e+03,3.186605e+03
2.957305e+03,3.227580e+03
2.967912e+03,3.197662e+03
2.978519e+03,3.147184e+03
2.989125e+03,3.119893e+03
2.999732e+03,3.080770e+03
3.010338e+03,3.084381e+03
3.020945e+03,3.117636e+03
3.031552e+03,3.055316e+03
3.042158e+03,3.039927e+03
3.052764e+03,3.049968e+03
3.063371e+03,2.972915e+03
3.073978e+03,3.003169e+03
3.084584e+03,2.960345e+03
3.095191e+03,2.974909e+03
3.105797e+03,2.995313e+03
3.116404e+03,3.000474e+03
3.127010e+03,2.957894e+03
3.137617e+03,2.983742e+03
3.148224e+03,2.932395e+03
3.158830e+03,2.925722e+03
3.169437e+03,2.926689e+03
3.180043e+03,2.843709e+03
3.190650e+03,2.960800e+03
3.200292e+03,3.034130e+03

File: black fibre12.CSV
1.995979e+02,1.139708e+03
2.102045e+02,1.141451e+03
2.208110e+02,1.134059e+03
2.314176e+02,1.139076e+03
2.420242e+02,1.143213e+03
2.526307e+02,1.155268e+03
2.632373e+02,1.161225e+03
2.738439e+02,1.158376e+03
2.844504e+02,1.164049e+03
2.950570e+02,1.159100e+03
3.056636e+02,1.166195e+03
3.162701e+02,1.166624e+03
3.268767e+02,1.173580e+03
3.374833e+02,1.169054e+03
3.480898e+02,1.167854e+03
3.586964e+02,1.173494e+03
3.693030e+02,1.166188e+03
3.799095e+02,1.186227e+03
3.905161e+02,1.166256e+03
4.011227e+02,1.168383e+03
4.117292e+02,1.163590e+03
4.223358e+02,1.155438e+03
4.329424e+02,1.168475e+03
4.435490e+02,1.154931e+03
4.541555e+02,1.155325e+03
4.647621e+02,1.144326e+03
4.753687e+02,1.140227e+03
4.859752e+02,1.158784e+03
4.965818e+02,1.138419e+03
5.071884e+02,1.132940e+03
5.177949e+02,1.145403e+03
5.284015e+02,1.131936e+03
5.390081e+02,1.120712e+03
5.496146e+02,1.122737e+03
5.602212e+02,1.107301e+03
5.708278e+02,1.093215e+03
5.814343e+02,1.113969e+03
5.920409e+02,1.098698e+03
6.026475e+02,1.104565e+03
6.132540e+02,1.087300e+03
6.238606e+02,1.089913e+03
6.344672e+02,1.091171e+03
6.450737e+02,1.079432e+03
6.556803e+02,1.072289e+03
6.662869e+02,1.064436e+03
6.768934e+02,1.058979e+03
6.875000e+02,1.058401e+03
6.981066e+02,1.045262e+03
7.087131e+02,1.036425e+03
7.193197e+02,1.041500e+03
7.299263e+02,1.029810e+03
7.405328e+02,1.026946e+03
7.511394e+02,1.016447e+03
7.617460e+02,1.019277e+03
7.723525e+02,1.010857e+03
7.829591e+02,1.004725e+03
7.935657e+02,1.003593e+03
8.041722e+02,9.909142e+02
8.147788e+02,9.992789e+02
8.253854e+02,9.837569e+02
8.359919e+02,9.711185e+02
8.465985e+02,9.723785e+02
8.572051e+02,9.682100e+02
8.678116e+02,9.635305e+02
8.784182e+02,9.670569e+02
8.890248e+02,9.610466e+02
8.996313e+02,9.493596e+02
9.102379e+02,9.393459e+02
9.208445e+02,9.322631e+02
9.314510e+02,9.320772e+02
9.420576e+02,9.195450e+02
9.526642e+02,9.147166e+02
9.632708e+02,9.162296e+02
9.738773e+02,8.995199e+02
9.844839e+02,8.975251e+02
9.950905e+02,8.984135e+02
1.005697e+03,8.919241e+02
1.016304e+03,8.873887e+02
1.026910e+03,8.860914e+02
1.037517e+03,8.803605e+02
1.048123e+03,8.790656e+02
1.058730e+03,8.724040e+02
1.069336e+03,8.640660e+02
1.079943e+03,8.677024e+02
1.090550e+03,8.928177e+02
1.101156e+03,8.747728e+02
1.111763e+03,8.661096e+02
1.122369e+03,8.863840e+02
1.132976e+03,8.570155e+02
1.143582e+03,8.511770e+02
1.154189e+03,8.555529e+02
1.164796e+03,8.231718e+02
1.175402e+03,8.207175e+02
1.186009e+03,8.210741e+02
1.196615e+03,8.098763e+02
1.207222e+03,8.016432e+02
1.217828e+03,8.071259e+02
1.228435e+03,7.987599e+02
1.239042e+03,7.889059e+02
1.249648e+03,7.854957e+02
1.260255e+03,7.881705e+02
1.270861e+03,7.840778e+02
1.281468e+03,7.951418e+02
1.292074e+03,7.933372e+02
1.302681e+03,7.745164e+02
1.313287e+03,7.621628e+02
1.323894e+03,7.695559e+02
1.334501e+03,7.750725e+02
1.345107e+03,7.734758e+02
1.355714e+03,7.645654e+02
1.366320e+03,7.635949e+02
1.376927e+03,7.576086e+02
1.387533e+03,7.505598e+02
1.398140e+03,7.402377e+02
1.408747e+03,7.334453e+02
1.419353e+03,7.268835e+02
1.429960e+03,7.206591e+02
1.440566e+03,7.125803e+02
1.451173e+03,7.034642e+02
1.461779e+03,7.001443e+02
1.472386e+03,6.985730e+02
1.482993e+03,6.985690e+02
1.493599e+03,6.912463e+02
1.504206e+03,6.789482e+02
1.514812e+03,6.740865e+02
1.525419e+03,6.742687e+02
1.536025e+03,6.685793e+02
1.546632e+03,6.614299e+02
1.557239e+03,6.675070e+02
1.567845e+03,6.660696e+02
1.578452e+03,6.652197e+02
1.589058e+03,6.655280e+02
1.599665e+03,6.494528e+02
1.610271e+03,6.498555e+02
1.620878e+03,6.419682e+02
1.631484e+03,6.276697e+02
1.642091e+03,6.253503e+02
1.652698e+03,6.214246e+02
1.663304e+03,6.208627e+02
1.673911e+03,6.099211e+02
1.684517e+03,6.083828e+02
1.695124e+03,6.074012e+02
1.705730e+03,6.013239e+02
1.716337e+03,5.971552e+02
1.726944e+03,5.862921e+02
1.737550e+03,5.886075e+02
1.748157e+03,5.840742e+02
1.758763e+03,5.800198e+02
1.769370e+03,5.770549e+02
1.779976e+03,5.689969e+02
1.790583e+03,5.603111e+02
1.801190e+03,5.601951e+02
1.811796e+03,5.595181e+02
1.822403e+03,5.467060e+02
1.833009e+03,5.491065e+02
1.843616e+03,5.459319e+02
1.854222e+03,5.402198e+02
1.864829e+03,5.343580e+02
1.875436e+03,5.243066e+02
1.886042e+03,5.228967e+02
1.896649e+03,5.130469e+02
1.907255e+03,5.090832e+02
1.917862e+03,5.032191e+02
1.928468e+03,5.074307e+02
1.939075e+03,4.946283e+02
1.949682e+03,4.881122e+02
1.960288e+03,4.891161e+02
1.970895e+03,4.715068e+02
1.981501e+03,4.775700e+02
1.992108e+03,4.739886e+02
2.002714e+03,4.717900e+02
2.013321e+03,4.620910e+02
2.023927e+03,4.660671e+02
2.034534e+03,4.539576e+02
2.045141e+03,4.450677e+02
2.055747e+03,4.438689e+02
2.066354e+03,4.355356e+02
2.076960e+03,4.297875e+02
2.087567e+03,4.254802e+02
2.098173e+03,4.200351e+02
2.108780e+03,4.180321e+02
2.119387e+03,4.109144e+02
2.129993e+03,4.005411e+02
2.140600e+03,4.069156e+02
2.151206e+03,4.039434e+02
2.161813e+03,3.958489e+02
2.172419e+03,3.965065e+02
2.183026e+03,3.916057e+02
2.193633e+03,3.845397e+02
2.204239e+03,3.819672e+02
2.214846e+03,3.771437e+02
2.225452e+03,3.735772e+02
2.236059e+03,3.725908e+02
2.246666e+03,3.596667e+02
2.257272e+03,3.569151e+02
2.267879e+03,3.517281e+02
2.278485e+03,3.470816e+02
2.289092e+03,3.461459e+02
2.299698e+03,3.461849e+02
2.310305e+03,3.505640e+02
2.320911e+03,3.263086e+02
2.331518e+03,3.286170e+02
2.342125e+03,3.227978e+02
2.352731e+03,3.167381e+02
2.363338e+03,3.184894e+02
2.373944e+03,3.183117e+02
2.384551e+03,3.186083e+02
2.395157e+03,3.200132e+02
2.405764e+03,3.036214e+02
2.416370e+03,3.002866e+02
2.426977e+03,3.008600e+02
2.437584e+03,2.901285e+02
2.448190e+03,2.937592e+02
2.458797e+03,2.869406e+02
2.469403e+03,2.850508e+02
2.480010e+03,2.880232e+02
2.490616e+03,2.827153e+02
2.501223e+03,2.770885e+02
2.511830e+03,2.821804e+02
2.522436e+03,2.664915e+02
2.533043e+03,2.733371e+02
2.543649e+03,2.759794e+02
2.554256e+03,2.845960e+02
2.564863e+03,2.720895e+02
2.575469e+03,2.733410e+02
2.586075e+03,2.590763e+02
2.596682e+03,2.602395e+02
2.607289e+03,2.607956e+02
2.617895e+03,2.512785e+02
2.628502e+03,2.520857e+02
2.639108e+03,2.508238e+02
2.649715e+03,2.396723e+02
2.660322e+03,2.380048e+02
2.670928e+03,2.433469e+02
2.681535e+03,2.400735e+02
2.692141e+03,2.379334e+02
2.702748e+03,2.413349e+02
2.713354e+03,2.344437e+02
2.723961e+03,2.410634e+02
2.734568e+03,2.450669e+02
2.745174e+03,2.264597e+02
2.755781e+03,2.276015e+02
2.766387e+03,2.262390e+02
2.776994e+03,2.274767e+02
2.787600e+03,2.251958e+02
2.798207e+03,2.281562e+02
2.808813e+03,2.305243e+02
2.819420e+03,2.246528e+02
2.830027e+03,2.335698e+02
2.840633e+03,2.149705e+02
2.851240e+03,2.339569e+02
2.861846e+03,2.456423e+02
2.872453e+03,2.480822e+02
2.883059e+03,2.545533e+02
2.893666e+03,2.521782e+02
2.904273e+03,2.547689e+02
2.914879e+03,2.531709e+02
2.925486e+03,2.506204e+02
2.936092e+03,2.348591e+02
2.946699e+03,2.368656e+02
2.957305e+03,2.581631e+02
2.967912e+03,2.171711e+02
2.978519e+03,2.263068e+02
2.989125e+03,2.024726e+02
2.999732e+03,2.111739e+02
3.010338e+03,2.079449e+02
3.020945e+03,1.983025e+02
3.031552e+03,1.860437e+02
3.042158e+03,2.196123e+02
3.052764e+03,2.113556e+02
3.063371e+03,2.094775e+02
3.073978e+03,1.879753e+02
3.084584e+03,2.021663e+02
3.095191e+03,2.040290e+02
3.105797e+03,1.949858e+02
3.116404e+03,2.279697e+02
3.127010e+03,2.043819e+02
3.137617e+03,2.360047e+02
3.148224e+03,1.974147e+02
3.158830e+03,1.965488e+02
3.169437e+03,2.262834e+02
3.180043e+03,1.958637e+02
3.190650e+03,2.095320e+02
3.200292e+03,2.573416e+02

File: black fibre13.CSV
1.995979e+02,4.479898e+03
2.102045e+02,4.501952e+03
2.208110e+02,4.536683e+03
2.314176e+02,4.555792e+03
2.420242e+02,4.565335e+03
2.526307e+02,4.609603e+03
2.632373e+02,4.654623e+03
2.738439e+02,4.660021e+03
2.844504e+02,4.687683e+03
2.950570e+02,4.695424e+03
3.056636e+02,4.722688e+03
3.162701e+02,4.745067e+03
3.268767e+02,4.769654e+03
3.374833e+02,4.756439e+03
3.480898e+02,4.757235e+03
3.586964e+02,4.796076e+03
3.693030e+02,4.808666e+03
3.799095e+02,4.842094e+03
3.905161e+02,4.828771e+03
4.011227e+02,4.836918e+03
4.117292e+02,4.808324e+03
4.223358e+02,4.832112e+03
4.329424e+02,4.841004e+03
4.435490e+02,4.849344e+03
4.541555e+02,4.869406e+03
4.647621e+02,4.853687e+03
4.753687e+02,4.870822e+03
4.859752e+02,4.938021e+03
4.965818e+02,4.908744e+03
5.071884e+02,4.876575e+03
5.177949e+02,4.858189e+03
5.284015e+02,4.856916e+03
5.390081e+02,4.839913e+03
5.496146e+02,4.833086e+03
5.602212e+02,4.839959e+03
5.708278e+02,4.826666e+03
5.814343e+02,4.825173e+03
5.920409e+02,4.833791e+03
6.026475e+02,4.813927e+03
6.132540e+02,4.812852e+03
6.238606e+02,4.807620e+03
6.344672e+02,4.783422e+03
6.450737e+02,4.789376e+03
6.556803e+02,4.778436e+03
6.662869e+02,4.748219e+03
6.768934e+02,4.734306e+03
6.875000e+02,4.721942e+03
6.981066e+02,4.734722e+03
7.087131e+02,4.687552e+03
7.193197e+02,4.693175e+03
7.299263e+02,4.668646e+03
7.405328e+02,4.654350e+03
7.511394e+02,4.626861e+03
7.617460e+02,4.622585e+03
7.723525e+02,4.592761e+03
7.829591e+02,4.569063e+03
7.935657e+02,4.576937e+03
8.041722e+02,4.549694e+03
8.147788e+02,4.542055e+03
8.253854e+02,4.514967e+03
8.359919e+02,4.498125e+03
8.465985e+02,4.470173e+03
8.572051e+02,4.455853e+03
8.678116e+02,4.439204e+03
8.784182e+02,4.447615e+03
8.890248e+02,4.422944e+03
8.996313e+02,4.387981e+03
9.102379e+02,4.349770e+03
9.208445e+02,4.336268e+03
9.314510e+02,4.302589e+03
9.420576e+02,4.276763e+03
9.526642e+02,4.270960e+03
9.632708e+02,4.259691e+03
9.738773e+02,4.226871e+03
9.844839e+02,4.214312e+03
9.950905e+02,4.202365e+03
1.005697e+03,4.167651e+03
1.016304e+03,4.129050e+03
1.026910e+03,4.112320e+03
1.037517e+03,4.107962e+03
1.048123e+03,4.088859e+03
1.058730e+03,4.060673e+03
1.069336e+03,4.037626e+03
1.079943e+03,4.031789e+03
1.090550e+03,4.050422e+03
1.101156e+03,3.985887e+03
1.111763e+03,3.991481e+03
1.122369e+03,4.011616e+03
1.132976e+03,3.986947e+03
1.143582e+03,3.969183e+03
1.154189e+03,3.959460e+03
1.164796e+03,3.875050e+03
1.175402e+03,3.867178e+03
1.186009e+03,3.854044e+03
1.196615e+03,3.826942e+03
1.207222e+03,3.796558e+03
1.217828e+03,3.792347e+03
1.228435e+03,3.759428e+03
1.239042e+03,3.729766e+03
1.249648e+03,3.702487e+03
1.260255e+03,3.673427e+03
1.270861e+03,3.692387e+03
1.281468e+03,3.694209e+03
1.292074e+03,3.664129e+03
1.302681e+03,3.621220e+03
1.313287e+03,3.583870e+03
1.323894e+03,3.582507e+03
1.334501e+03,3.597643e+03
1.345107e+03,3.578138e+03
1.355714e+03,3.542381e+03
1.366320e+03,3.509885e+03
1.376927e+03,3.501432e+03
1.387533e+03,3.457154e+03
1.398140e+03,3.421853e+03
1.408747e+03,3.399606e+03
1.419353e+03,3.385294e+03
1.429960e+03,3.362481e+03
1.440566e+03,3.327323e+03
1.451173e+03,3.298110e+03
1.461779e+03,3.290028e+03
1.472386e+03,3.259630e+03
1.482993e+03,3.252311e+03
1.493599e+03,3.248225e+03
1.504206e+03,3.229847e+03
1.514812e+03,3.181396e+03
1.525419e+03,3.187113e+03
1.536025e+03,3.131952e+03
1.546632e+03,3.114789e+03
1.557239e+03,3.131629e+03
1.567845e+03,3.144604e+03
1.578452e+03,3.124998e+03
1.589058e+03,3.111422e+03
1.599665e+03,3.057074e+03
1.610271e+03,3.038370e+03
1.620878e+03,3.006730e+03
1.631484e+03,2.979873e+03
1.642091e+03,2.967921e+03
1.652698e+03,2.936503e+03
1.663304e+03,2.924761e+03
1.673911e+03,2.898040e+03
1.684517e+03,2.870133e+03
1.695124e+03,2.884161e+03
1.705730e+03,2.849594e+03
1.716337e+03,2.821672e+03
1.726944e+03,2.803214e+03
1.737550e+03,2.775459e+03
1.748157e+03,2.749568e+03
1.758763e+03,2.739678e+03
1.769370e+03,2.723602e+03
1.779976e+03,2.687198e+03
1.790583e+03,2.683992e+03
1.801190e+03,2.672416e+03
1.811796e+03,2.629047e+03
1.822403e+03,2.619709e+03
1.833009e+03,2.609342e+03
1.843616e+03,2.600745e+03
1.854222e+03,2.556178e+03
1.864829e+03,2.538740e+03
1.875436e+03,2.509545e+03
1.886042e+03,2.472006e+03
1.896649e+03,2.464912e+03
1.907255e+03,2.466883e+03
1.917862e+03,2.434159e+03
1.928468e+03,2.407351e+03
1.939075e+03,2.400348e+03
1.949682e+03,2.378414e+03
1.960288e+03,2.346719e+03
1.970895e+03,2.336777e+03
1.981501e+03,2.312387e+03
1.992108e+03,2.280241e+03
2.002714e+03,2.272732e+03
2.013321e+03,2.245956e+03
2.023927e+03,2.214288e+03
2.034534e+03,2.184269e+03
2.045141e+03,2.172295e+03
2.055747e+03,2.153092e+03
2.066354e+03,2.124158e+03
2.076960e+03,2.124789e+03
2.087567e+03,2.075746e+03
2.098173e+03,2.071556e+03
2.108780e+03,2.064148e+03
2.119387e+03,2.038026e+03
2.129993e+03,1.990172e+03
2.140600e+03,1.997848e+03
2.151206e+03,1.973836e+03
2.161813e+03,1.947283e+03
2.172419e+03,1.926559e+03
2.183026e+03,1.897712e+03
2.193633e+03,1.893246e+03
2.204239e+03,1.874942e+03
2.214846e+03,1.867288e+03
2.225452e+03,1.830889e+03
2.236059e+03,1.799089e+03
2.246666e+03,1.790272e+03
2.257272e+03,1.762598e+03
2.267879e+03,1.754398e+03
2.278485e+03,1.728269e+03
2.289092e+03,1.714619e+03
2.299698e+03,1.685415e+03
2.310305e+03,1.671387e+03
2.320911e+03,1.650818e+03
2.331518e+03,1.631674e+03
2.342125e+03,1.621699e+03
2.352731e+03,1.589230e+03
2.363338e+03,1.574613e+03
2.373944e+03,1.547327e+03
2.384551e+03,1.551670e+03
2.395157e+03,1.540029e+03
2.405764e+03,1.502832e+03
2.416370e+03,1.491070e+03
2.426977e+03,1.489488e+03
2.437584e+03,1.466166e+03
2.448190e+03,1.435801e+03
2.458797e+03,1.432408e+03
2.469403e+03,1.420764e+03
2.480010e+03,1.395279e+03
2.490616e+03,1.371664e+03
2.501223e+03,1.370358e+03
2.511830e+03,1.373971e+03
2.522436e+03,1.347463e+03
2.533043e+03,1.346192e+03
2.543649e+03,1.332217e+03
2.554256e+03,1.305486e+03
2.564863e+03,1.314610e+03
2.575469e+03,1.277020e+03
2.586075e+03,1.284649e+03
2.596682e+03,1.259207e+03
2.607289e+03,1.222947e+03
2.617895e+03,1.232789e+03
2.628502e+03,1.221617e+03
2.639108e+03,1.197797e+03
2.649715e+03,1.196116e+03
2.660322e+03,1.181922e+03
2.670928e+03,1.167994e+03
2.681535e+03,1.152721e+03
2.692141e+03,1.162422e+03
2.702748e+03,1.132940e+03
2.713354e+03,1.116056e+03
2.723961e+03,1.118633e+03
2.734568e+03,1.113328e+03
2.745174e+03,1.102883e+03
2.755781e+03,1.042400e+03
2.766387e+03,1.086032e+03
2.776994e+03,1.069261e+03
2.787600e+03,1.054666e+03
2.798207e+03,1.029821e+03
2.808813e+03,1.030911e+03
2.819420e+03,1.023837e+03
2.830027e+03,1.029631e+03
2.840633e+03,1.019466e+03
2.851240e+03,1.008052e+03
2.861846e+03,1.009330e+03
2.872453e+03,1.001696e+03
2.883059e+03,1.009310e+03
2.893666e+03,1.028996e+03
2.904273e+03,1.005362e+03
2.914879e+03,1.001579e+03
2.925486e+03,9.927045e+02
2.936092e+03,9.767186e+02
2.946699e+03,9.762090e+02
2.957305e+03,9.936957e+02
2.967912e+03,9.555822e+02
2.978519e+03,9.315125e+02
2.989125e+03,9.163177e+02
2.999732e+03,8.966585e+02
3.010338e+03,9.312293e+02
3.020945e+03,8.890002e+02
3.031552e+03,8.738491e+02
3.042158e+03,8.839875e+02
3.052764e+03,8.729779e+02
3.063371e+03,8.881619e+02
3.073978e+03,8.890756e+02
3.084584e+03,8.513147e+02
3.095191e+03,8.738760e+02
3.105797e+03,8.277198e+02
3.116404e+03,9.028105e+02
3.127010e+03,8.480764e+02
3.137617e+03,8.685447e+02
3.148224e+03,8.588367e+02
3.158830e+03,8.285242e+02
3.169437e+03,8.566619e+02
3.180043e+03,8.574486e+02
3.190650e+03,8.462291e+02
3.200292e+03,9.063459e+02