Folder: Taff_Bargoed_microplastics_data/RAMAN_data/06022023_r1 (part 6)

File: blue frag2.CSV
1.995979e+02,2.871514e+03
2.102045e+02,2.860983e+03
2.208110e+02,2.869451e+03
2.314176e+02,2.910699e+03
2.420242e+02,2.865487e+03
2.526307e+02,2.928725e+03
2.632373e+02,2.921820e+03
2.738439e+02,2.893488e+03
2.844504e+02,2.912129e+03
2.950570e+02,2.886351e+03
3.056636e+02,2.875906e+03
3.162701e+02,2.881362e+03
3.268767e+02,2.901120e+03
3.374833e+02,2.876492e+03
3.480898e+02,2.876318e+03
3.586964e+02,2.870087e+03
3.693030e+02,2.890131e+03
3.799095e+02,2.899528e+03
3.905161e+02,2.871812e+03
4.011227e+02,2.852319e+03
4.117292e+02,2.847705e+03
4.223358e+02,2.841878e+03
4.329424e+02,2.843133e+03
4.435490e+02,2.843142e+03
4.541555e+02,2.827837e+03
4.647621e+02,2.809684e+03
4.753687e+02,2.842508e+03
4.859752e+02,2.834460e+03
4.965818e+02,2.808814e+03
5.071884e+02,2.783032e+03
5.177949e+02,2.769865e+03
5.284015e+02,2.753189e+03
5.390081e+02,2.722446e+03
5.496146e+02,2.746416e+03
5.602212e+02,2.714762e+03
5.708278e+02,2.701411e+03
5.814343e+02,2.710279e+03
5.920409e+02,2.729770e+03
6.026475e+02,2.673527e+03
6.132540e+02,2.657158e+03
6.238606e+02,2.666153e+03
6.344672e+02,2.636714e+03
6.450737e+02,2.623119e+03
6.556803e+02,2.615845e+03
6.662869e+02,2.601419e+03
6.768934e+02,2.836661e+03
6.875000e+02,2.599373e+03
6.981066e+02,2.579165e+03
7.087131e+02,2.543167e+03
7.193197e+02,2.555539e+03
7.299263e+02,2.512771e+03
7.405328e+02,2.595114e+03
7.511394e+02,2.519935e+03
7.617460e+02,2.466087e+03
7.723525e+02,2.454519e+03
7.829591e+02,2.461828e+03
7.935657e+02,2.427753e+03
8.041722e+02,2.395730e+03
8.147788e+02,2.383097e+03
8.253854e+02,2.380370e+03
8.359919e+02,2.372732e+03
8.465985e+02,2.382227e+03
8.572051e+02,2.341334e+03
8.678116e+02,2.323630e+03
8.784182e+02,2.308677e+03
8.890248e+02,2.295927e+03
8.996313e+02,2.265294e+03
9.102379e+02,2.258608e+03
9.208445e+02,2.247972e+03
9.314510e+02,2.236928e+03
9.420576e+02,2.205063e+03
9.526642e+02,2.277777e+03
9.632708e+02,2.188088e+03
9.738773e+02,2.165138e+03
9.844839e+02,2.141817e+03
9.950905e+02,2.141332e+03
1.005697e+03,2.148764e+03
1.016304e+03,2.099804e+03
1.026910e+03,2.093553e+03
1.037517e+03,2.100607e+03
1.048123e+03,2.078756e+03
1.058730e+03,2.076938e+03
1.069336e+03,2.061307e+03
1.079943e+03,2.048857e+03
1.090550e+03,2.069615e+03
1.101156e+03,2.057751e+03
1.111763e+03,2.058867e+03
1.122369e+03,2.033095e+03
1.132976e+03,2.032714e+03
1.143582e+03,2.112606e+03
1.154189e+03,1.995404e+03
1.164796e+03,1.969374e+03
1.175402e+03,1.936334e+03
1.186009e+03,1.947976e+03
1.196615e+03,1.965479e+03
1.207222e+03,1.962697e+03
1.217828e+03,1.945458e+03
1.228435e+03,1.882702e+03
1.239042e+03,1.868819e+03
1.249648e+03,1.843936e+03
1.260255e+03,1.838514e+03
1.270861e+03,1.850030e+03
1.281468e+03,1.830802e+03
1.292074e+03,1.841892e+03
1.302681e+03,1.882001e+03
1.313287e+03,1.825544e+03
1.323894e+03,1.831450e+03
1.334501e+03,1.995944e+03
1.345107e+03,1.930250e+03
1.355714e+03,1.798939e+03
1.366320e+03,1.786710e+03
1.376927e+03,1.778392e+03
1.387533e+03,1.747680e+03
1.398140e+03,1.739553e+03
1.408747e+03,1.731870e+03
1.419353e+03,1.740135e+03
1.429960e+03,1.727327e+03
1.440566e+03,1.718559e+03
1.451173e+03,1.823821e+03
1.461779e+03,1.695860e+03
1.472386e+03,1.682859e+03
1.482993e+03,1.661156e+03
1.493599e+03,1.651314e+03
1.504206e+03,1.651002e+03
1.514812e+03,1.645692e+03
1.525419e+03,2.170458e+03
1.536025e+03,1.715873e+03
1.546632e+03,1.614770e+03
1.557239e+03,1.596803e+03
1.567845e+03,1.578958e+03
1.578452e+03,1.576483e+03
1.589058e+03,1.573440e+03
1.599665e+03,1.553041e+03
1.610271e+03,1.549387e+03
1.620878e+03,1.522637e+03
1.631484e+03,1.517164e+03
1.642091e+03,1.492218e+03
1.652698e+03,1.486222e+03
1.663304e+03,1.498216e+03
1.673911e+03,1.465667e+03
1.684517e+03,1.446521e+03
1.695124e+03,1.449108e+03
1.705730e+03,1.444993e+03
1.716337e+03,1.395876e+03
1.726944e+03,1.408910e+03
1.737550e+03,1.397838e+03
1.748157e+03,1.381049e+03
1.758763e+03,1.366276e+03
1.769370e+03,1.371393e+03
1.779976e+03,1.363672e+03
1.790583e+03,1.339062e+03
1.801190e+03,1.334846e+03
1.811796e+03,1.318528e+03
1.822403e+03,1.306177e+03
1.833009e+03,1.290595e+03
1.843616e+03,1.278316e+03
1.854222e+03,1.255899e+03
1.864829e+03,1.263041e+03
1.875436e+03,1.254906e+03
1.886042e+03,1.239522e+03
1.896649e+03,1.223605e+03
1.907255e+03,1.218319e+03
1.917862e+03,1.203431e+03
1.928468e+03,1.180564e+03
1.939075e+03,1.193598e+03
1.949682e+03,1.164860e+03
1.960288e+03,1.174196e+03
1.970895e+03,1.153237e+03
1.981501e+03,1.143303e+03
1.992108e+03,1.127631e+03
2.002714e+03,1.113146e+03
2.013321e+03,1.103977e+03
2.023927e+03,1.098278e+03
2.034534e+03,1.088005e+03
2.045141e+03,1.063258e+03
2.055747e+03,1.052481e+03
2.066354e+03,1.046036e+03
2.076960e+03,1.042648e+03
2.087567e+03,1.033136e+03
2.098173e+03,1.023464e+03
2.108780e+03,1.004238e+03
2.119387e+03,9.910400e+02
2.129993e+03,9.740992e+02
2.140600e+03,9.673127e+02
2.151206e+03,9.671045e+02
2.161813e+03,9.466857e+02
2.172419e+03,9.438699e+02
2.183026e+03,9.320889e+02
2.193633e+03,9.304639e+02
2.204239e+03,9.141531e+02
2.214846e+03,9.049406e+02
2.225452e+03,8.948690e+02
2.236059e+03,8.800798e+02
2.246666e+03,8.678360e+02
2.257272e+03,8.554106e+02
2.267879e+03,8.578575e+02
2.278485e+03,8.301214e+02
2.289092e+03,8.326985e+02
2.299698e+03,8.228115e+02
2.310305e+03,8.110959e+02
2.320911e+03,8.089296e+02
2.331518e+03,7.884906e+02
2.342125e+03,7.818492e+02
2.352731e+03,7.729041e+02
2.363338e+03,7.825305e+02
2.373944e+03,7.644307e+02
2.384551e+03,7.546679e+02
2.395157e+03,7.361390e+02
2.405764e+03,7.435234e+02
2.416370e+03,7.256298e+02
2.426977e+03,7.406251e+02
2.437584e+03,7.115165e+02
2.448190e+03,7.135684e+02
2.458797e+03,7.090936e+02
2.469403e+03,6.975646e+02
2.480010e+03,6.981909e+02
2.490616e+03,6.799520e+02
2.501223e+03,6.763979e+02
2.511830e+03,6.827186e+02
2.522436e+03,6.733748e+02
2.533043e+03,6.524322e+02
2.543649e+03,6.635849e+02
2.554256e+03,6.703679e+02
2.564863e+03,6.630477e+02
2.575469e+03,6.460145e+02
2.586075e+03,6.339122e+02
2.596682e+03,6.403312e+02
2.607289e+03,6.210973e+02
2.617895e+03,6.169351e+02
2.628502e+03,6.230414e+02
2.639108e+03,6.083841e+02
2.649715e+03,6.092410e+02
2.660322e+03,6.049378e+02
2.670928e+03,5.983126e+02
2.681535e+03,5.957093e+02
2.692141e+03,5.845588e+02
2.702748e+03,5.849468e+02
2.713354e+03,5.845460e+02
2.723961e+03,5.839167e+02
2.734568e+03,5.791710e+02
2.745174e+03,5.805928e+02
2.755781e+03,5.617932e+02
2.766387e+03,5.565607e+02
2.776994e+03,5.625440e+02
2.787600e+03,5.528225e+02
2.798207e+03,5.539589e+02
2.808813e+03,5.501135e+02
2.819420e+03,5.412087e+02
2.830027e+03,5.530851e+02
2.840633e+03,5.433929e+02
2.851240e+03,5.570201e+02
2.861846e+03,5.478162e+02
2.872453e+03,5.700486e+02
2.883059e+03,5.734411e+02
2.893666e+03,5.804312e+02
2.904273e+03,5.835347e+02
2.914879e+03,5.641245e+02
2.925486e+03,5.446281e+02
2.936092e+03,5.384025e+02
2.946699e+03,5.462094e+02
2.957305e+03,5.854305e+02
2.967912e+03,5.495192e+02
2.978519e+03,5.302853e+02
2.989125e+03,5.106456e+02
2.999732e+03,5.114852e+02
3.010338e+03,5.322573e+02
3.020945e+03,5.176607e+02
3.031552e+03,5.032434e+02
3.042158e+03,5.187054e+02
3.052764e+03,5.343563e+02
3.063371e+03,5.138012e+02
3.073978e+03,5.345627e+02
3.084584e+03,5.023163e+02
3.095191e+03,5.234692e+02
3.105797e+03,5.037542e+02
3.116404e+03,5.135980e+02
3.127010e+03,5.209802e+02
3.137617e+03,5.179070e+02
3.148224e+03,5.014806e+02
3.158830e+03,5.309700e+02
3.169437e+03,5.341070e+02
3.180043e+03,5.147092e+02
3.190650e+03,5.222113e+02
3.200292e+03,5.494586e+02

File: blue frag3.CSV
1.995979e+02,9.140507e+03
2.102045e+02,9.191675e+03
2.208110e+02,9.255443e+03
2.314176e+02,9.304783e+03
2.420242e+02,9.343162e+03
2.526307e+02,9.423234e+03
2.632373e+02,9.467731e+03
2.738439e+02,9.485873e+03
2.844504e+02,9.558010e+03
2.950570e+02,9.540597e+03
3.056636e+02,9.541434e+03
3.162701e+02,9.593542e+03
3.268767e+02,9.625751e+03
3.374833e+02,9.573824e+03
3.480898e+02,9.588771e+03
3.586964e+02,9.623922e+03
3.693030e+02,9.607718e+03
3.799095e+02,9.651424e+03
3.905161e+02,9.642703e+03
4.011227e+02,9.621502e+03
4.117292e+02,9.594235e+03
4.223358e+02,9.595046e+03
4.329424e+02,9.601129e+03
4.435490e+02,9.566405e+03
4.541555e+02,9.585462e+03
4.647621e+02,9.543876e+03
4.753687e+02,9.503100e+03
4.859752e+02,9.501588e+03
4.965818e+02,9.488079e+03
5.071884e+02,9.480980e+03
5.177949e+02,9.487028e+03
5.284015e+02,9.447203e+03
5.390081e+02,9.396484e+03
5.496146e+02,9.426871e+03
5.602212e+02,9.393671e+03
5.708278e+02,9.330483e+03
5.814343e+02,9.330818e+03
5.920409e+02,9.307730e+03
6.026475e+02,9.268076e+03
6.132540e+02,9.257391e+03
6.238606e+02,9.242240e+03
6.344672e+02,9.201156e+03
6.450737e+02,9.164952e+03
6.556803e+02,9.139865e+03
6.662869e+02,9.119733e+03
6.768934e+02,9.130708e+03
6.875000e+02,9.079931e+03
6.981066e+02,9.027984e+03
7.087131e+02,8.955593e+03
7.193197e+02,8.945713e+03
7.299263e+02,8.867637e+03
7.405328e+02,8.875074e+03
7.511394e+02,8.779595e+03
7.617460e+02,8.801732e+03
7.723525e+02,8.733808e+03
7.829591e+02,8.692259e+03
7.935657e+02,8.642268e+03
8.041722e+02,8.573691e+03
8.147788e+02,8.545100e+03
8.253854e+02,8.506652e+03
8.359919e+02,8.485081e+03
8.465985e+02,8.385254e+03
8.572051e+02,8.334053e+03
8.678116e+02,8.290373e+03
8.784182e+02,8.278083e+03
8.890248e+02,8.225614e+03
8.996313e+02,8.156898e+03
9.102379e+02,8.132523e+03
9.208445e+02,8.062352e+03
9.314510e+02,7.994805e+03
9.420576e+02,7.948994e+03
9.526642e+02,7.950894e+03
9.632708e+02,7.878747e+03
9.738773e+02,7.808099e+03
9.844839e+02,7.764292e+03
9.950905e+02,7.753688e+03
1.005697e+03,7.707423e+03
1.016304e+03,7.626812e+03
1.026910e+03,7.598071e+03
1.037517e+03,7.549882e+03
1.048123e+03,7.510236e+03
1.058730e+03,7.471260e+03
1.069336e+03,7.456409e+03
1.079943e+03,7.395122e+03
1.090550e+03,7.396696e+03
1.101156e+03,7.318134e+03
1.111763e+03,7.261155e+03
1.122369e+03,7.219536e+03
1.132976e+03,7.200179e+03
1.143582e+03,7.147051e+03
1.154189e+03,7.115539e+03
1.164796e+03,7.103190e+03
1.175402e+03,6.995928e+03
1.186009e+03,6.983900e+03
1.196615e+03,6.977813e+03
1.207222e+03,6.943435e+03
1.217828e+03,6.864208e+03
1.228435e+03,6.840679e+03
1.239042e+03,6.775375e+03
1.249648e+03,6.749365e+03
1.260255e+03,6.709051e+03
1.270861e+03,6.737119e+03
1.281468e+03,6.672138e+03
1.292074e+03,6.656896e+03
1.302681e+03,6.573978e+03
1.313287e+03,6.511811e+03
1.323894e+03,6.494948e+03
1.334501e+03,6.519398e+03
1.345107e+03,6.426687e+03
1.355714e+03,6.385022e+03
1.366320e+03,6.346178e+03
1.376927e+03,6.291508e+03
1.387533e+03,6.237650e+03
1.398140e+03,6.196548e+03
1.408747e+03,6.155626e+03
1.419353e+03,6.126861e+03
1.429960e+03,6.105970e+03
1.440566e+03,6.056904e+03
1.451173e+03,6.027336e+03
1.461779e+03,6.004534e+03
1.472386e+03,5.928052e+03
1.482993e+03,5.911269e+03
1.493599e+03,5.871732e+03
1.504206e+03,5.854804e+03
1.514812e+03,5.833905e+03
1.525419e+03,5.878762e+03
1.536025e+03,5.880516e+03
1.546632e+03,5.729744e+03
1.557239e+03,5.699355e+03
1.567845e+03,5.650713e+03
1.578452e+03,5.578599e+03
1.589058e+03,5.541662e+03
1.599665e+03,5.522269e+03
1.610271e+03,5.504983e+03
1.620878e+03,5.459906e+03
1.631484e+03,5.405934e+03
1.642091e+03,5.354624e+03
1.652698e+03,5.329780e+03
1.663304e+03,5.286896e+03
1.673911e+03,5.263412e+03
1.684517e+03,5.205937e+03
1.695124e+03,5.174097e+03
1.705730e+03,5.166334e+03
1.716337e+03,5.100417e+03
1.726944e+03,5.064026e+03
1.737550e+03,5.026064e+03
1.748157e+03,4.999414e+03
1.758763e+03,4.981591e+03
1.769370e+03,4.933061e+03
1.779976e+03,4.897796e+03
1.790583e+03,4.859157e+03
1.801190e+03,4.829436e+03
1.811796e+03,4.785858e+03
1.822403e+03,4.722661e+03
1.833009e+03,4.716120e+03
1.843616e+03,4.702908e+03
1.854222e+03,4.637161e+03
1.864829e+03,4.638029e+03
1.875436e+03,4.619975e+03
1.886042e+03,4.529147e+03
1.896649e+03,4.508370e+03
1.907255e+03,4.485400e+03
1.917862e+03,4.438090e+03
1.928468e+03,4.410812e+03
1.939075e+03,4.377044e+03
1.949682e+03,4.316506e+03
1.960288e+03,4.281415e+03
1.970895e+03,4.287128e+03
1.981501e+03,4.231027e+03
1.992108e+03,4.181791e+03
2.002714e+03,4.177030e+03
2.013321e+03,4.140513e+03
2.023927e+03,4.087749e+03
2.034534e+03,4.072205e+03
2.045141e+03,4.009126e+03
2.055747e+03,3.974391e+03
2.066354e+03,3.954597e+03
2.076960e+03,3.924825e+03
2.087567e+03,3.887392e+03
2.098173e+03,3.867844e+03
2.108780e+03,3.811282e+03
2.119387e+03,3.760674e+03
2.129993e+03,3.758476e+03
2.140600e+03,3.714835e+03
2.151206e+03,3.695184e+03
2.161813e+03,3.640887e+03
2.172419e+03,3.608507e+03
2.183026e+03,3.574326e+03
2.193633e+03,3.534493e+03
2.204239e+03,3.541913e+03
2.214846e+03,3.487001e+03
2.225452e+03,3.427500e+03
2.236059e+03,3.387239e+03
2.246666e+03,3.360211e+03
2.257272e+03,3.331000e+03
2.267879e+03,3.282376e+03
2.278485e+03,3.289398e+03
2.289092e+03,3.206445e+03
2.299698e+03,3.225960e+03
2.310305e+03,3.169148e+03
2.320911e+03,3.147864e+03
2.331518e+03,3.114057e+03
2.342125e+03,3.084934e+03
2.352731e+03,3.023390e+03
2.363338e+03,3.001462e+03
2.373944e+03,2.987103e+03
2.384551e+03,2.977518e+03
2.395157e+03,2.922180e+03
2.405764e+03,2.907589e+03
2.416370e+03,2.870331e+03
2.426977e+03,2.817905e+03
2.437584e+03,2.816039e+03
2.448190e+03,2.777276e+03
2.458797e+03,2.766635e+03
2.469403e+03,2.725616e+03
2.480010e+03,2.697419e+03
2.490616e+03,2.684668e+03
2.501223e+03,2.660827e+03
2.511830e+03,2.642772e+03
2.522436e+03,2.579522e+03
2.533043e+03,2.618024e+03
2.543649e+03,2.567901e+03
2.554256e+03,2.571679e+03
2.564863e+03,2.533234e+03
2.575469e+03,2.525188e+03
2.586075e+03,2.466610e+03
2.596682e+03,2.476524e+03
2.607289e+03,2.428065e+03
2.617895e+03,2.402746e+03
2.628502e+03,2.393848e+03
2.639108e+03,2.361690e+03
2.649715e+03,2.373802e+03
2.660322e+03,2.325610e+03
2.670928e+03,2.308898e+03
2.681535e+03,2.301394e+03
2.692141e+03,2.254595e+03
2.702748e+03,2.247327e+03
2.713354e+03,2.244259e+03
2.723961e+03,2.233657e+03
2.734568e+03,2.214578e+03
2.745174e+03,2.197843e+03
2.755781e+03,2.151770e+03
2.766387e+03,2.143908e+03
2.776994e+03,2.142414e+03
2.787600e+03,2.095070e+03
2.798207e+03,2.112407e+03
2.808813e+03,2.114080e+03
2.819420e+03,2.103945e+03
2.830027e+03,2.079999e+03
2.840633e+03,2.044650e+03
2.851240e+03,2.038557e+03
2.861846e+03,2.023982e+03
2.872453e+03,1.983562e+03
2.883059e+03,1.999829e+03
2.893666e+03,1.998935e+03
2.904273e+03,1.971504e+03
2.914879e+03,1.971093e+03
2.925486e+03,1.988401e+03
2.936092e+03,1.942343e+03
2.946699e+03,1.948418e+03
2.957305e+03,1.974866e+03
2.967912e+03,1.897998e+03
2.978519e+03,1.898925e+03
2.989125e+03,1.895323e+03
2.999732e+03,1.822313e+03
3.010338e+03,1.844753e+03
3.020945e+03,1.873749e+03
3.031552e+03,1.831037e+03
3.042158e+03,1.844112e+03
3.052764e+03,1.834216e+03
3.063371e+03,1.815931e+03
3.073978e+03,1.814724e+03
3.084584e+03,1.810209e+03
3.095191e+03,1.783918e+03
3.105797e+03,1.833498e+03
3.116404e+03,1.839741e+03
3.127010e+03,1.770247e+03
3.137617e+03,1.837362e+03
3.148224e+03,1.785643e+03
3.158830e+03,1.791431e+03
3.169437e+03,1.799491e+03
3.180043e+03,1.801448e+03
3.190650e+03,1.782967e+03
3.200292e+03,1.817269e+03

File: blue frag4.CSV
1.995979e+02,4.937341e+03
2.102045e+02,4.999361e+03
2.208110e+02,5.055228e+03
2.314176e+02,5.130269e+03
2.420242e+02,5.178265e+03
2.526307e+02,5.301764e+03
2.632373e+02,5.382394e+03
2.738439e+02,5.445972e+03
2.844504e+02,5.547696e+03
2.950570e+02,5.526674e+03
3.056636e+02,5.559927e+03
3.162701e+02,5.610757e+03
3.268767e+02,5.659213e+03
3.374833e+02,5.669306e+03
3.480898e+02,5.746063e+03
3.586964e+02,5.762070e+03
3.693030e+02,5.816715e+03
3.799095e+02,5.869665e+03
3.905161e+02,5.873565e+03
4.011227e+02,5.887119e+03
4.117292e+02,5.907659e+03
4.223358e+02,5.945191e+03
4.329424e+02,5.997453e+03
4.435490e+02,5.983133e+03
4.541555e+02,6.010297e+03
4.647621e+02,6.000952e+03
4.753687e+02,6.017572e+03
4.859752e+02,6.031134e+03
4.965818e+02,6.043112e+03
5.071884e+02,6.050688e+03
5.177949e+02,6.074429e+03
5.284015e+02,6.083897e+03
5.390081e+02,6.103294e+03
5.496146e+02,6.151124e+03
5.602212e+02,6.231549e+03
5.708278e+02,6.071674e+03
5.814343e+02,6.057561e+03
5.920409e+02,6.062097e+03
6.026475e+02,6.096731e+03
6.132540e+02,6.131612e+03
6.238606e+02,6.017027e+03
6.344672e+02,6.011799e+03
6.450737e+02,5.973646e+03
6.556803e+02,5.954172e+03
6.662869e+02,5.925760e+03
6.768934e+02,5.882688e+03
6.875000e+02,5.879744e+03
6.981066e+02,5.850711e+03
7.087131e+02,5.804885e+03
7.193197e+02,5.787212e+03
7.299263e+02,5.763031e+03
7.405328e+02,5.709765e+03
7.511394e+02,5.691171e+03
7.617460e+02,5.652268e+03
7.723525e+02,5.622077e+03
7.829591e+02,5.635820e+03
7.935657e+02,5.598564e+03
8.041722e+02,5.535013e+03
8.147788e+02,5.490360e+03
8.253854e+02,5.455120e+03
8.359919e+02,5.440422e+03
8.465985e+02,5.387045e+03
8.572051e+02,5.336486e+03
8.678116e+02,5.308993e+03
8.784182e+02,5.280888e+03
8.890248e+02,5.251196e+03
8.996313e+02,5.211799e+03
9.102379e+02,5.141130e+03
9.208445e+02,5.118565e+03
9.314510e+02,5.067441e+03
9.420576e+02,5.014573e+03
9.526642e+02,4.961484e+03
9.632708e+02,4.945292e+03
9.738773e+02,4.894353e+03
9.844839e+02,4.843361e+03
9.950905e+02,4.835769e+03
1.005697e+03,4.758775e+03
1.016304e+03,4.725466e+03
1.026910e+03,4.677060e+03
1.037517e+03,4.669084e+03
1.048123e+03,4.615732e+03
1.058730e+03,4.579980e+03
1.069336e+03,4.559359e+03
1.079943e+03,4.551292e+03
1.090550e+03,4.551829e+03
1.101156e+03,4.440503e+03
1.111763e+03,4.427009e+03
1.122369e+03,4.403124e+03
1.132976e+03,4.364461e+03
1.143582e+03,4.297772e+03
1.154189e+03,4.250167e+03
1.164796e+03,4.218278e+03
1.175402e+03,4.163187e+03
1.186009e+03,4.153279e+03
1.196615e+03,4.133621e+03
1.207222e+03,4.060511e+03
1.217828e+03,4.047533e+03
1.228435e+03,4.026734e+03
1.239042e+03,3.985918e+03
1.249648e+03,3.946941e+03
1.260255e+03,3.908790e+03
1.270861e+03,3.886219e+03
1.281468e+03,3.836202e+03
1.292074e+03,3.827608e+03
1.302681e+03,3.777395e+03
1.313287e+03,3.774620e+03
1.323894e+03,3.744585e+03
1.334501e+03,3.750777e+03
1.345107e+03,3.695297e+03
1.355714e+03,3.682899e+03
1.366320e+03,3.672762e+03
1.376927e+03,3.615864e+03
1.387533e+03,3.582607e+03
1.398140e+03,3.553417e+03
1.408747e+03,3.522721e+03
1.419353e+03,3.505841e+03
1.429960e+03,3.482313e+03
1.440566e+03,3.457011e+03
1.451173e+03,3.475257e+03
1.461779e+03,3.440776e+03
1.472386e+03,3.382642e+03
1.482993e+03,3.360695e+03
1.493599e+03,3.352145e+03
1.504206e+03,3.336628e+03
1.514812e+03,3.311983e+03
1.525419e+03,3.280072e+03
1.536025e+03,3.238413e+03
1.546632e+03,3.215999e+03
1.557239e+03,3.220244e+03
1.567845e+03,3.274932e+03
1.578452e+03,3.227244e+03
1.589058e+03,3.161273e+03
1.599665e+03,3.130337e+03
1.610271e+03,3.106802e+03
1.620878e+03,3.095278e+03
1.631484e+03,3.086980e+03
1.642091e+03,3.021245e+03
1.652698e+03,2.986418e+03
1.663304e+03,2.978343e+03
1.673911e+03,2.981332e+03
1.684517e+03,2.954564e+03
1.695124e+03,2.909626e+03
1.705730e+03,2.883540e+03
1.716337e+03,2.835994e+03
1.726944e+03,2.816871e+03
1.737550e+03,2.792096e+03
1.748157e+03,2.785959e+03
1.758763e+03,2.765226e+03
1.769370e+03,2.732097e+03
1.779976e+03,2.726286e+03
1.790583e+03,2.671568e+03
1.801190e+03,2.671947e+03
1.811796e+03,2.633988e+03
1.822403e+03,2.604741e+03
1.833009e+03,2.579667e+03
1.843616e+03,2.563354e+03
1.854222e+03,2.521222e+03
1.864829e+03,2.507429e+03
1.875436e+03,2.488528e+03
1.886042e+03,2.474765e+03
1.896649e+03,2.421046e+03
1.907255e+03,2.428805e+03
1.917862e+03,2.385974e+03
1.928468e+03,2.359032e+03
1.939075e+03,2.341984e+03
1.949682e+03,2.297203e+03
1.960288e+03,2.283304e+03
1.970895e+03,2.273607e+03
1.981501e+03,2.245614e+03
1.992108e+03,2.222969e+03
2.002714e+03,2.200310e+03
2.013321e+03,2.165220e+03
2.023927e+03,2.123949e+03
2.034534e+03,2.136700e+03
2.045141e+03,2.082824e+03
2.055747e+03,2.067604e+03
2.066354e+03,2.032309e+03
2.076960e+03,2.033313e+03
2.087567e+03,1.999755e+03
2.098173e+03,1.976959e+03
2.108780e+03,1.953257e+03
2.119387e+03,1.929521e+03
2.129993e+03,1.895196e+03
2.140600e+03,1.884405e+03
2.151206e+03,1.876572e+03
2.161813e+03,1.853638e+03
2.172419e+03,1.817180e+03
2.183026e+03,1.775812e+03
2.193633e+03,1.780206e+03
2.204239e+03,1.746189e+03
2.214846e+03,1.746883e+03
2.225452e+03,1.694453e+03
2.236059e+03,1.698110e+03
2.246666e+03,1.665871e+03
2.257272e+03,1.637434e+03
2.267879e+03,1.613275e+03
2.278485e+03,1.605739e+03
2.289092e+03,1.582779e+03
2.299698e+03,1.559640e+03
2.310305e+03,1.542491e+03
2.320911e+03,1.532549e+03
2.331518e+03,1.493590e+03
2.342125e+03,1.493318e+03
2.352731e+03,1.473221e+03
2.363338e+03,1.446330e+03
2.373944e+03,1.425978e+03
2.384551e+03,1.405010e+03
2.395157e+03,1.387506e+03
2.405764e+03,1.368731e+03
2.416370e+03,1.342469e+03
2.426977e+03,1.353942e+03
2.437584e+03,1.339599e+03
2.448190e+03,1.288480e+03
2.458797e+03,1.303413e+03
2.469403e+03,1.259333e+03
2.480010e+03,1.268582e+03
2.490616e+03,1.252768e+03
2.501223e+03,1.232322e+03
2.511830e+03,1.211942e+03
2.522436e+03,1.193259e+03
2.533043e+03,1.203492e+03
2.543649e+03,1.183257e+03
2.554256e+03,1.172517e+03
2.564863e+03,1.152188e+03
2.575469e+03,1.149844e+03
2.586075e+03,1.123002e+03
2.596682e+03,1.114064e+03
2.607289e+03,1.087920e+03
2.617895e+03,1.098049e+03
2.628502e+03,1.076896e+03
2.639108e+03,1.050028e+03
2.649715e+03,1.055205e+03
2.660322e+03,1.041080e+03
2.670928e+03,1.024175e+03
2.681535e+03,1.038640e+03
2.692141e+03,9.882559e+02
2.702748e+03,1.010749e+03
2.713354e+03,9.888254e+02
2.723961e+03,9.835667e+02
2.734568e+03,9.791384e+02
2.745174e+03,9.373636e+02
2.755781e+03,9.578876e+02
2.766387e+03,9.163199e+02
2.776994e+03,9.184656e+02
2.787600e+03,9.241719e+02
2.798207e+03,9.103856e+02
2.808813e+03,8.992560e+02
2.819420e+03,8.875590e+02
2.830027e+03,8.945656e+02
2.840633e+03,8.831426e+02
2.851240e+03,8.874095e+02
2.861846e+03,9.031314e+02
2.872453e+03,8.829423e+02
2.883059e+03,8.820461e+02
2.893666e+03,8.882209e+02
2.904273e+03,8.817610e+02
2.914879e+03,8.737687e+02
2.925486e+03,8.337441e+02
2.936092e+03,8.490652e+02
2.946699e+03,8.258356e+02
2.957305e+03,8.632116e+02
2.967912e+03,7.838441e+02
2.978519e+03,8.098972e+02
2.989125e+03,7.649537e+02
2.999732e+03,7.913183e+02
3.010338e+03,7.850328e+02
3.020945e+03,7.874416e+02
3.031552e+03,7.559634e+02
3.042158e+03,7.937370e+02
3.052764e+03,7.473690e+02
3.063371e+03,7.780309e+02
3.073978e+03,7.493573e+02
3.084584e+03,7.466534e+02
3.095191e+03,7.671849e+02
3.105797e+03,7.292737e+02
3.116404e+03,7.670510e+02
3.127010e+03,7.636097e+02
3.137617e+03,7.602278e+02
3.148224e+03,7.592555e+02
3.158830e+03,7.146683e+02
3.169437e+03,7.724291e+02
3.180043e+03,7.714153e+02
3.190650e+03,7.764418e+02
3.200292e+03,7.844591e+02