Folder: Taff_Bargoed_microplastics_data/RAMAN_data/12022024_r2 (part 2)

File: black fibre4.CSV
9.931763e+01,0.000000e+00
1.108884e+02,0.000000e+00
1.224592e+02,0.000000e+00
1.340300e+02,0.000000e+00
1.456008e+02,0.000000e+00
1.571716e+02,0.000000e+00
1.687424e+02,0.000000e+00
1.803132e+02,0.000000e+00
1.918840e+02,0.000000e+00
2.034548e+02,7.310317e+02
2.150256e+02,7.283531e+02
2.265964e+02,7.241710e+02
2.381673e+02,7.182429e+02
2.497381e+02,7.177237e+02
2.613088e+02,7.073639e+02
2.728796e+02,7.110479e+02
2.844504e+02,6.998720e+02
2.960212e+02,6.979846e+02
3.075920e+02,6.949990e+02
3.191628e+02,6.924517e+02
3.307336e+02,6.954400e+02
3.423044e+02,6.932496e+02
3.538752e+02,6.835269e+02
3.654461e+02,6.814364e+02
3.770169e+02,6.980668e+02
3.885877e+02,6.757156e+02
4.001585e+02,6.653526e+02
4.117293e+02,6.719576e+02
4.233001e+02,6.602197e+02
4.348709e+02,6.729807e+02
4.464417e+02,6.656797e+02
4.580125e+02,6.672682e+02
4.695833e+02,6.536467e+02
4.811541e+02,6.475743e+02
4.927249e+02,6.539593e+02
5.042957e+02,6.512096e+02
5.158665e+02,6.485987e+02
5.274373e+02,6.404655e+02
5.390081e+02,6.451025e+02
5.505789e+02,6.360363e+02
5.621497e+02,6.451927e+02
5.737205e+02,6.305706e+02
5.852913e+02,6.400958e+02
5.968621e+02,6.309503e+02
6.084329e+02,6.359658e+02
6.200037e+02,6.336039e+02
6.315745e+02,6.299360e+02
6.431453e+02,6.275223e+02
6.547161e+02,6.240848e+02
6.662869e+02,6.253259e+02
6.778577e+02,6.245501e+02
6.894285e+02,6.188674e+02
7.009993e+02,6.180341e+02
7.125701e+02,6.216388e+02
7.241409e+02,6.193907e+02
7.357117e+02,6.217664e+02
7.472825e+02,6.177602e+02
7.588533e+02,6.184920e+02
7.704241e+02,6.064427e+02
7.819949e+02,6.180897e+02
7.935657e+02,6.180547e+02
8.051365e+02,6.076083e+02
8.167073e+02,6.111410e+02
8.282781e+02,6.105865e+02
8.398489e+02,6.052285e+02
8.514197e+02,6.198636e+02
8.629905e+02,6.094889e+02
8.745613e+02,6.179237e+02
8.861321e+02,6.185327e+02
8.977029e+02,6.124840e+02
9.092737e+02,6.101559e+02
9.208445e+02,6.083978e+02
9.324153e+02,6.001539e+02
9.439861e+02,6.023600e+02
9.555569e+02,6.010906e+02
9.671277e+02,6.017189e+02
9.786985e+02,5.977890e+02
9.902693e+02,5.966061e+02
1.001840e+03,5.935757e+02
1.013411e+03,5.994755e+02
1.024982e+03,5.957234e+02
1.036552e+03,5.966697e+02
1.048123e+03,6.005945e+02
1.059694e+03,6.035214e+02
1.071265e+03,6.061629e+02
1.082836e+03,6.091657e+02
1.094406e+03,6.338366e+02
1.105977e+03,6.225364e+02
1.117548e+03,6.213945e+02
1.129119e+03,6.102592e+02
1.140690e+03,6.063538e+02
1.152261e+03,6.039628e+02
1.163831e+03,6.111890e+02
1.175402e+03,5.968598e+02
1.186973e+03,5.969202e+02
1.198544e+03,6.050748e+02
1.210115e+03,6.024396e+02
1.221685e+03,6.018196e+02
1.233256e+03,6.065749e+02
1.244827e+03,6.107552e+02
1.256398e+03,6.090958e+02
1.267969e+03,6.098025e+02
1.279539e+03,6.176464e+02
1.291110e+03,6.235861e+02
1.302681e+03,6.222487e+02
1.314252e+03,6.237498e+02
1.325823e+03,6.353597e+02
1.337393e+03,6.376146e+02
1.348964e+03,6.306617e+02
1.360535e+03,6.187385e+02
1.372106e+03,6.263930e+02
1.383677e+03,6.240787e+02
1.395247e+03,6.087022e+02
1.406818e+03,6.064207e+02
1.418389e+03,6.048672e+02
1.429960e+03,6.068666e+02
1.441531e+03,5.959715e+02
1.453101e+03,5.967396e+02
1.464672e+03,5.920906e+02
1.476243e+03,6.013747e+02
1.487814e+03,5.977635e+02
1.499385e+03,5.861374e+02
1.510955e+03,5.926315e+02
1.522526e+03,5.847995e+02
1.534097e+03,5.900302e+02
1.545668e+03,5.903092e+02
1.557239e+03,6.006465e+02
1.568809e+03,5.994620e+02
1.580380e+03,6.023613e+02
1.591951e+03,6.025361e+02
1.603522e+03,5.964744e+02
1.615093e+03,5.839634e+02
1.626663e+03,5.769532e+02
1.638234e+03,5.736473e+02
1.649805e+03,5.587093e+02
1.661376e+03,5.640592e+02
1.672947e+03,5.516917e+02
1.684517e+03,5.487039e+02
1.696088e+03,5.464314e+02
1.707659e+03,5.476496e+02
1.719230e+03,5.443021e+02
1.730801e+03,5.456331e+02
1.742371e+03,5.488147e+02
1.753942e+03,5.416851e+02
1.765513e+03,5.431806e+02
1.777084e+03,5.389969e+02
1.788655e+03,5.348180e+02
1.800225e+03,5.363798e+02
1.811796e+03,5.293294e+02
1.823367e+03,5.304385e+02
1.834938e+03,5.329869e+02
1.846509e+03,5.341956e+02
1.858079e+03,5.282067e+02
1.869650e+03,5.222669e+02
1.881221e+03,5.237922e+02
1.892792e+03,5.220599e+02
1.904363e+03,5.172908e+02
1.915933e+03,5.273004e+02
1.927504e+03,5.314828e+02
1.939075e+03,5.141041e+02
1.950646e+03,5.170527e+02
1.962217e+03,5.238965e+02
1.973787e+03,5.174490e+02
1.985358e+03,5.217905e+02
1.996929e+03,5.051763e+02
2.008500e+03,5.101681e+02
2.020071e+03,4.985370e+02
2.031641e+03,5.100368e+02
2.043212e+03,5.012583e+02
2.054783e+03,5.080854e+02
2.066354e+03,4.988721e+02
2.077925e+03,4.957216e+02
2.089496e+03,4.990757e+02
2.101066e+03,4.858781e+02
2.112637e+03,4.777197e+02
2.124208e+03,4.992711e+02
2.135779e+03,4.885092e+02
2.147350e+03,4.828419e+02
2.158920e+03,4.811744e+02
2.170491e+03,4.834006e+02
2.182062e+03,4.843139e+02
2.193633e+03,4.754546e+02
2.205204e+03,4.880363e+02
2.216774e+03,4.863438e+02
2.228345e+03,4.838963e+02
2.239916e+03,4.798782e+02
2.251487e+03,4.779458e+02
2.263058e+03,4.659381e+02
2.274628e+03,4.720644e+02
2.286199e+03,4.637940e+02
2.297770e+03,4.731342e+02
2.309341e+03,4.624947e+02
2.320912e+03,4.590860e+02
2.332482e+03,4.595756e+02
2.344053e+03,4.646543e+02
2.355624e+03,4.621521e+02
2.367195e+03,4.605686e+02
2.378766e+03,4.611707e+02
2.390336e+03,4.507334e+02
2.401907e+03,4.578280e+02
2.413478e+03,4.499608e+02
2.425049e+03,4.458303e+02
2.436620e+03,4.544917e+02
2.448190e+03,4.510242e+02
2.459761e+03,4.484710e+02
2.471332e+03,4.513412e+02
2.482903e+03,4.524404e+02
2.494474e+03,4.373939e+02
2.506044e+03,4.443662e+02
2.517615e+03,4.562580e+02
2.529186e+03,4.367202e+02
2.540757e+03,4.509989e+02
2.552328e+03,4.567909e+02
2.563898e+03,4.478371e+02
2.575469e+03,4.503793e+02
2.587040e+03,4.534552e+02
2.598611e+03,4.375805e+02
2.610182e+03,4.493381e+02
2.621752e+03,4.430975e+02
2.633323e+03,4.462282e+02
2.644894e+03,4.390207e+02
2.656465e+03,4.473497e+02
2.668036e+03,4.672101e+02
2.679606e+03,4.433516e+02
2.691177e+03,4.561526e+02
2.702748e+03,4.301933e+02
2.714319e+03,4.517749e+02
2.725890e+03,4.238405e+02
2.737460e+03,4.412183e+02
2.749031e+03,4.403604e+02
2.760602e+03,4.330864e+02
2.772173e+03,4.441551e+02
2.783744e+03,4.537560e+02
2.795314e+03,4.490746e+02
2.806885e+03,4.263982e+02
2.818456e+03,4.438553e+02
2.830027e+03,4.519302e+02
2.841598e+03,4.489387e+02
2.853168e+03,4.668794e+02
2.864739e+03,4.379507e+02
2.876310e+03,4.611968e+02
2.887881e+03,4.624537e+02
2.899452e+03,4.753618e+02
2.911022e+03,4.839931e+02
2.922593e+03,4.528589e+02
2.934164e+03,4.576043e+02
2.945735e+03,4.660848e+02
2.957306e+03,4.865676e+02
2.968876e+03,4.533110e+02
2.980447e+03,4.403599e+02
2.992018e+03,4.485885e+02
3.003589e+03,4.260531e+02
3.015160e+03,4.493737e+02
3.026730e+03,4.346586e+02
3.038301e+03,4.476338e+02
3.049872e+03,4.352820e+02
3.061443e+03,4.500970e+02
3.073014e+03,4.452334e+02
3.084584e+03,4.390298e+02
3.096155e+03,4.442403e+02
3.107726e+03,4.591012e+02
3.119297e+03,4.570923e+02
3.130868e+03,4.659438e+02
3.142438e+03,4.709423e+02
3.154009e+03,4.492422e+02
3.165580e+03,4.672805e+02
3.177151e+03,4.524164e+02
3.188722e+03,4.453739e+02
3.200292e+03,4.792867e+02
3.211863e+03,0.000000e+00
3.223434e+03,0.000000e+00
3.235005e+03,0.000000e+00
3.246576e+03,0.000000e+00
3.258146e+03,0.000000e+00
3.269717e+03,0.000000e+00
3.281288e+03,0.000000e+00
3.292859e+03,0.000000e+00
3.304430e+03,0.000000e+00
3.316000e+03,0.000000e+00
3.327571e+03,0.000000e+00
3.339142e+03,0.000000e+00
3.350713e+03,0.000000e+00
3.362284e+03,0.000000e+00
3.373854e+03,0.000000e+00
3.385425e+03,0.000000e+00
3.396996e+03,0.000000e+00
3.408567e+03,0.000000e+00
3.420138e+03,0.000000e+00
3.431708e+03,0.000000e+00
3.443279e+03,0.000000e+00
3.454850e+03,0.000000e+00
3.466421e+03,0.000000e+00
3.477992e+03,0.000000e+00
3.489563e+03,0.000000e+00
3.500169e+03,0.000000e+00

File: black fibre9.CSV
9.931763e+01,0.000000e+00
1.108884e+02,0.000000e+00
1.224592e+02,0.000000e+00
1.340300e+02,0.000000e+00
1.456008e+02,0.000000e+00
1.571716e+02,0.000000e+00
1.687424e+02,0.000000e+00
1.803132e+02,0.000000e+00
1.918840e+02,0.000000e+00
2.034548e+02,5.204392e+03
2.150256e+02,5.240034e+03
2.265964e+02,5.285479e+03
2.381673e+02,5.340562e+03
2.497381e+02,5.362267e+03
2.613088e+02,5.427042e+03
2.728796e+02,5.466664e+03
2.844504e+02,5.501205e+03
2.960212e+02,5.516041e+03
3.075920e+02,5.528637e+03
3.191628e+02,5.575406e+03
3.307336e+02,5.591833e+03
3.423044e+02,5.619904e+03
3.538752e+02,5.644342e+03
3.654461e+02,5.662263e+03
3.770169e+02,5.731047e+03
3.885877e+02,5.713528e+03
4.001585e+02,5.738475e+03
4.117293e+02,5.752125e+03
4.233001e+02,5.764858e+03
4.348709e+02,5.777112e+03
4.464417e+02,5.789665e+03
4.580125e+02,5.796216e+03
4.695833e+02,5.837845e+03
4.811541e+02,5.816141e+03
4.927249e+02,5.833531e+03
5.042957e+02,5.859118e+03
5.158665e+02,5.896551e+03
5.274373e+02,5.868885e+03
5.390081e+02,5.880589e+03
5.505789e+02,5.869677e+03
5.621497e+02,5.911863e+03
5.737205e+02,5.882833e+03
5.852913e+02,5.913514e+03
5.968621e+02,5.927159e+03
6.084329e+02,5.930229e+03
6.200037e+02,5.970453e+03
6.315745e+02,5.939392e+03
6.431453e+02,5.950616e+03
6.547161e+02,5.954739e+03
6.662869e+02,5.962412e+03
6.778577e+02,5.943649e+03
6.894285e+02,5.943022e+03
7.009993e+02,5.974550e+03
7.125701e+02,5.981009e+03
7.241409e+02,5.946686e+03
7.357117e+02,5.953283e+03
7.472825e+02,5.980702e+03
7.588533e+02,5.966968e+03
7.704241e+02,5.960334e+03
7.819949e+02,6.005814e+03
7.935657e+02,5.978116e+03
8.051365e+02,5.978624e+03
8.167073e+02,5.986821e+03
8.282781e+02,5.993976e+03
8.398489e+02,6.006361e+03
8.514197e+02,5.997567e+03
8.629905e+02,5.985661e+03
8.745613e+02,6.017855e+03
8.861321e+02,6.017994e+03
8.977029e+02,6.014641e+03
9.092737e+02,6.009193e+03
9.208445e+02,6.010558e+03
9.324153e+02,6.023866e+03
9.439861e+02,6.026914e+03
9.555569e+02,6.012173e+03
9.671277e+02,6.028281e+03
9.786985e+02,6.040899e+03
9.902693e+02,6.045416e+03
1.001840e+03,6.056346e+03
1.013411e+03,6.070344e+03
1.024982e+03,6.092664e+03
1.036552e+03,6.115011e+03
1.048123e+03,6.107761e+03
1.059694e+03,6.103451e+03
1.071265e+03,6.151247e+03
1.082836e+03,6.141144e+03
1.094406e+03,6.161570e+03
1.105977e+03,6.166740e+03
1.117548e+03,6.209676e+03
1.129119e+03,6.181656e+03
1.140690e+03,6.220956e+03
1.152261e+03,6.268004e+03
1.163831e+03,6.271026e+03
1.175402e+03,6.263244e+03
1.186973e+03,6.298693e+03
1.198544e+03,6.357567e+03
1.210115e+03,6.359022e+03
1.221685e+03,6.369470e+03
1.233256e+03,6.371969e+03
1.244827e+03,6.426158e+03
1.256398e+03,6.408738e+03
1.267969e+03,6.414672e+03
1.279539e+03,6.446820e+03
1.291110e+03,6.467704e+03
1.302681e+03,6.480322e+03
1.314252e+03,6.522689e+03
1.325823e+03,6.527229e+03
1.337393e+03,6.563989e+03
1.348964e+03,6.562583e+03
1.360535e+03,6.524295e+03
1.372106e+03,6.515453e+03
1.383677e+03,6.522718e+03
1.395247e+03,6.522944e+03
1.406818e+03,6.517811e+03
1.418389e+03,6.499499e+03
1.429960e+03,6.522809e+03
1.441531e+03,6.496188e+03
1.453101e+03,6.476588e+03
1.464672e+03,6.485125e+03
1.476243e+03,6.518785e+03
1.487814e+03,6.506750e+03
1.499385e+03,6.499771e+03
1.510955e+03,6.480599e+03
1.522526e+03,6.505763e+03
1.534097e+03,6.486906e+03
1.545668e+03,6.498007e+03
1.557239e+03,6.546132e+03
1.568809e+03,6.598168e+03
1.580380e+03,6.582454e+03
1.591951e+03,6.567664e+03
1.603522e+03,6.558002e+03
1.615093e+03,6.500920e+03
1.626663e+03,6.450636e+03
1.638234e+03,6.417119e+03
1.649805e+03,6.357747e+03
1.661376e+03,6.368035e+03
1.672947e+03,6.333379e+03
1.684517e+03,6.331402e+03
1.696088e+03,6.346107e+03
1.707659e+03,6.320367e+03
1.719230e+03,6.290546e+03
1.730801e+03,6.270753e+03
1.742371e+03,6.257013e+03
1.753942e+03,6.239028e+03
1.765513e+03,6.238983e+03
1.777084e+03,6.207967e+03
1.788655e+03,6.206193e+03
1.800225e+03,6.173119e+03
1.811796e+03,6.201995e+03
1.823367e+03,6.170736e+03
1.834938e+03,6.154420e+03
1.846509e+03,6.087388e+03
1.858079e+03,6.107827e+03
1.869650e+03,6.034522e+03
1.881221e+03,6.032775e+03
1.892792e+03,6.038768e+03
1.904363e+03,5.988114e+03
1.915933e+03,5.950788e+03
1.927504e+03,5.982667e+03
1.939075e+03,5.937072e+03
1.950646e+03,5.905731e+03
1.962217e+03,5.898299e+03
1.973787e+03,5.883216e+03
1.985358e+03,5.856705e+03
1.996929e+03,5.829846e+03
2.008500e+03,5.829872e+03
2.020071e+03,5.742647e+03
2.031641e+03,5.752322e+03
2.043212e+03,5.711845e+03
2.054783e+03,5.682985e+03
2.066354e+03,5.643614e+03
2.077925e+03,5.637615e+03
2.089496e+03,5.587701e+03
2.101066e+03,5.573177e+03
2.112637e+03,5.536825e+03
2.124208e+03,5.561408e+03
2.135779e+03,5.519771e+03
2.147350e+03,5.435123e+03
2.158920e+03,5.461801e+03
2.170491e+03,5.415833e+03
2.182062e+03,5.379563e+03
2.193633e+03,5.364764e+03
2.205204e+03,5.350651e+03
2.216774e+03,5.326382e+03
2.228345e+03,5.245330e+03
2.239916e+03,5.203182e+03
2.251487e+03,5.226166e+03
2.263058e+03,5.163576e+03
2.274628e+03,5.147036e+03
2.286199e+03,5.101188e+03
2.297770e+03,5.131936e+03
2.309341e+03,5.062795e+03
2.320912e+03,5.050460e+03
2.332482e+03,4.996438e+03
2.344053e+03,5.048429e+03
2.355624e+03,4.988932e+03
2.367195e+03,4.919958e+03
2.378766e+03,4.923461e+03
2.390336e+03,4.891990e+03
2.401907e+03,4.873217e+03
2.413478e+03,4.863580e+03
2.425049e+03,4.847995e+03
2.436620e+03,4.828046e+03
2.448190e+03,4.739554e+03
2.459761e+03,4.728297e+03
2.471332e+03,4.712951e+03
2.482903e+03,4.748967e+03
2.494474e+03,4.698592e+03
2.506044e+03,4.658056e+03
2.517615e+03,4.670074e+03
2.529186e+03,4.664973e+03
2.540757e+03,4.614344e+03
2.552328e+03,4.583116e+03
2.563898e+03,4.563112e+03
2.575469e+03,4.588375e+03
2.587040e+03,4.511959e+03
2.598611e+03,4.460117e+03
2.610182e+03,4.468718e+03
2.621752e+03,4.496310e+03
2.633323e+03,4.438966e+03
2.644894e+03,4.402839e+03
2.656465e+03,4.438666e+03
2.668036e+03,4.403463e+03
2.679606e+03,4.336165e+03
2.691177e+03,4.392359e+03
2.702748e+03,4.380125e+03
2.714319e+03,4.314610e+03
2.725890e+03,4.279184e+03
2.737460e+03,4.262369e+03
2.749031e+03,4.274354e+03
2.760602e+03,4.232961e+03
2.772173e+03,4.241415e+03
2.783744e+03,4.184286e+03
2.795314e+03,4.208430e+03
2.806885e+03,4.173586e+03
2.818456e+03,4.172045e+03
2.830027e+03,4.169706e+03
2.841598e+03,4.158277e+03
2.853168e+03,4.133503e+03
2.864739e+03,4.114174e+03
2.876310e+03,4.108613e+03
2.887881e+03,4.109329e+03
2.899452e+03,4.093966e+03
2.911022e+03,4.061032e+03
2.922593e+03,4.012993e+03
2.934164e+03,4.013455e+03
2.945735e+03,4.012683e+03
2.957306e+03,4.009585e+03
2.968876e+03,3.933344e+03
2.980447e+03,3.909777e+03
2.992018e+03,3.906911e+03
3.003589e+03,3.871867e+03
3.015160e+03,3.861361e+03
3.026730e+03,3.872076e+03
3.038301e+03,3.874752e+03
3.049872e+03,3.846680e+03
3.061443e+03,3.809387e+03
3.073014e+03,3.753390e+03
3.084584e+03,3.817042e+03
3.096155e+03,3.805710e+03
3.107726e+03,3.738539e+03
3.119297e+03,3.702490e+03
3.130868e+03,3.797206e+03
3.142438e+03,3.757879e+03
3.154009e+03,3.710668e+03
3.165580e+03,3.756549e+03
3.177151e+03,3.676264e+03
3.188722e+03,3.688918e+03
3.200292e+03,3.721534e+03
3.211863e+03,0.000000e+00
3.223434e+03,0.000000e+00
3.235005e+03,0.000000e+00
3.246576e+03,0.000000e+00
3.258146e+03,0.000000e+00
3.269717e+03,0.000000e+00
3.281288e+03,0.000000e+00
3.292859e+03,0.000000e+00
3.304430e+03,0.000000e+00
3.316000e+03,0.000000e+00
3.327571e+03,0.000000e+00
3.339142e+03,0.000000e+00
3.350713e+03,0.000000e+00
3.362284e+03,0.000000e+00
3.373854e+03,0.000000e+00
3.385425e+03,0.000000e+00
3.396996e+03,0.000000e+00
3.408567e+03,0.000000e+00
3.420138e+03,0.000000e+00
3.431708e+03,0.000000e+00
3.443279e+03,0.000000e+00
3.454850e+03,0.000000e+00
3.466421e+03,0.000000e+00
3.477992e+03,0.000000e+00
3.489563e+03,0.000000e+00
3.500169e+03,0.000000e+00

File: black fibre10.CSV
9.931763e+01,0.000000e+00
1.108884e+02,0.000000e+00
1.224592e+02,0.000000e+00
1.340300e+02,0.000000e+00
1.456008e+02,0.000000e+00
1.571716e+02,0.000000e+00
1.687424e+02,0.000000e+00
1.803132e+02,0.000000e+00
1.918840e+02,0.000000e+00
2.034548e+02,4.006058e+03
2.150256e+02,4.008374e+03
2.265964e+02,4.038095e+03
2.381673e+02,4.077037e+03
2.497381e+02,4.095750e+03
2.613088e+02,4.128958e+03
2.728796e+02,4.131728e+03
2.844504e+02,4.156774e+03
2.960212e+02,4.178813e+03
3.075920e+02,4.187272e+03
3.191628e+02,4.207196e+03
3.307336e+02,4.216696e+03
3.423044e+02,4.234769e+03
3.538752e+02,4.260111e+03
3.654461e+02,4.262022e+03
3.770169e+02,4.291156e+03
3.885877e+02,4.268636e+03
4.001585e+02,4.291368e+03
4.117293e+02,4.286513e+03
4.233001e+02,4.311107e+03
4.348709e+02,4.311225e+03
4.464417e+02,4.307657e+03
4.580125e+02,4.324694e+03
4.695833e+02,4.307681e+03
4.811541e+02,4.343654e+03
4.927249e+02,4.341417e+03
5.042957e+02,4.331284e+03
5.158665e+02,4.343851e+03
5.274373e+02,4.337237e+03
5.390081e+02,4.319360e+03
5.505789e+02,4.322650e+03
5.621497e+02,4.332430e+03
5.737205e+02,4.321022e+03
5.852913e+02,4.333860e+03
5.968621e+02,4.318332e+03
6.084329e+02,4.330093e+03
6.200037e+02,4.318445e+03
6.315745e+02,4.303776e+03
6.431453e+02,4.296441e+03
6.547161e+02,4.299616e+03
6.662869e+02,4.295420e+03
6.778577e+02,4.288301e+03
6.894285e+02,4.284323e+03
7.009993e+02,4.260925e+03
7.125701e+02,4.263537e+03
7.241409e+02,4.273836e+03
7.357117e+02,4.229538e+03
7.472825e+02,4.242525e+03
7.588533e+02,4.217121e+03
7.704241e+02,4.194861e+03
7.819949e+02,4.230791e+03
7.935657e+02,4.177890e+03
8.051365e+02,4.169703e+03
8.167073e+02,4.164026e+03
8.282781e+02,4.167337e+03
8.398489e+02,4.157654e+03
8.514197e+02,4.141123e+03
8.629905e+02,4.117341e+03
8.745613e+02,4.113219e+03
8.861321e+02,4.126392e+03
8.977029e+02,4.097413e+03
9.092737e+02,4.084793e+03
9.208445e+02,4.040513e+03
9.324153e+02,4.033127e+03
9.439861e+02,4.015544e+03
9.555569e+02,3.993736e+03
9.671277e+02,3.985097e+03
9.786985e+02,3.971112e+03
9.902693e+02,3.957645e+03
1.001840e+03,3.956535e+03
1.013411e+03,3.931104e+03
1.024982e+03,3.930190e+03
1.036552e+03,3.922071e+03
1.048123e+03,3.880850e+03
1.059694e+03,3.886684e+03
1.071265e+03,3.871311e+03
1.082836e+03,3.894746e+03
1.094406e+03,3.872108e+03
1.105977e+03,3.866288e+03
1.117548e+03,3.879730e+03
1.129119e+03,3.856230e+03
1.140690e+03,3.826442e+03
1.152261e+03,3.836129e+03
1.163831e+03,3.795137e+03
1.175402e+03,3.759812e+03
1.186973e+03,3.745438e+03
1.198544e+03,3.738623e+03
1.210115e+03,3.730370e+03
1.221685e+03,3.706461e+03
1.233256e+03,3.687213e+03
1.244827e+03,3.682337e+03
1.256398e+03,3.659392e+03
1.267969e+03,3.653429e+03
1.279539e+03,3.659044e+03
1.291110e+03,3.647098e+03
1.302681e+03,3.620390e+03
1.314252e+03,3.604750e+03
1.325823e+03,3.602662e+03
1.337393e+03,3.606020e+03
1.348964e+03,3.579852e+03
1.360535e+03,3.540342e+03
1.372106e+03,3.546072e+03
1.383677e+03,3.512888e+03
1.395247e+03,3.488147e+03
1.406818e+03,3.458882e+03
1.418389e+03,3.462039e+03
1.429960e+03,3.427648e+03
1.441531e+03,3.412608e+03
1.453101e+03,3.401445e+03
1.464672e+03,3.356462e+03
1.476243e+03,3.368636e+03
1.487814e+03,3.322267e+03
1.499385e+03,3.316923e+03
1.510955e+03,3.298361e+03
1.522526e+03,3.301261e+03
1.534097e+03,3.271775e+03
1.545668e+03,3.242185e+03
1.557239e+03,3.244659e+03
1.568809e+03,3.238024e+03
1.580380e+03,3.239302e+03
1.591951e+03,3.213218e+03
1.603522e+03,3.171848e+03
1.615093e+03,3.155906e+03
1.626663e+03,3.138012e+03
1.638234e+03,3.091676e+03
1.649805e+03,3.052375e+03
1.661376e+03,3.063378e+03
1.672947e+03,3.045067e+03
1.684517e+03,3.030364e+03
1.696088e+03,2.988770e+03
1.707659e+03,2.976031e+03
1.719230e+03,2.956230e+03
1.730801e+03,2.940693e+03
1.742371e+03,2.918184e+03
1.753942e+03,2.881768e+03
1.765513e+03,2.871112e+03
1.777084e+03,2.848049e+03
1.788655e+03,2.849340e+03
1.800225e+03,2.825222e+03
1.811796e+03,2.803594e+03
1.823367e+03,2.777273e+03
1.834938e+03,2.761149e+03
1.846509e+03,2.754663e+03
1.858079e+03,2.716525e+03
1.869650e+03,2.681447e+03
1.881221e+03,2.671302e+03
1.892792e+03,2.647738e+03
1.904363e+03,2.622401e+03
1.915933e+03,2.612457e+03
1.927504e+03,2.580312e+03
1.939075e+03,2.560981e+03
1.950646e+03,2.551184e+03
1.962217e+03,2.532963e+03
1.973787e+03,2.503040e+03
1.985358e+03,2.475828e+03
1.996929e+03,2.469708e+03
2.008500e+03,2.427789e+03
2.020071e+03,2.420749e+03
2.031641e+03,2.398314e+03
2.043212e+03,2.341903e+03
2.054783e+03,2.345740e+03
2.066354e+03,2.316646e+03
2.077925e+03,2.294652e+03
2.089496e+03,2.263645e+03
2.101066e+03,2.244004e+03
2.112637e+03,2.224735e+03
2.124208e+03,2.220754e+03
2.135779e+03,2.183314e+03
2.147350e+03,2.138022e+03
2.158920e+03,2.133046e+03
2.170491e+03,2.106588e+03
2.182062e+03,2.075430e+03
2.193633e+03,2.085250e+03
2.205204e+03,2.075802e+03
2.216774e+03,2.050465e+03
2.228345e+03,2.002631e+03
2.239916e+03,1.984603e+03
2.251487e+03,1.980510e+03
2.263058e+03,1.963969e+03
2.274628e+03,1.924545e+03
2.286199e+03,1.899850e+03
2.297770e+03,1.897091e+03
2.309341e+03,1.883523e+03
2.320912e+03,1.855745e+03
2.332482e+03,1.839281e+03
2.344053e+03,1.828769e+03
2.355624e+03,1.789777e+03
2.367195e+03,1.788883e+03
2.378766e+03,1.756780e+03
2.390336e+03,1.761376e+03
2.401907e+03,1.736932e+03
2.413478e+03,1.708839e+03
2.425049e+03,1.699771e+03
2.436620e+03,1.672472e+03
2.448190e+03,1.665491e+03
2.459761e+03,1.643013e+03
2.471332e+03,1.609969e+03
2.482903e+03,1.611768e+03
2.494474e+03,1.594071e+03
2.506044e+03,1.571983e+03
2.517615e+03,1.581710e+03
2.529186e+03,1.558316e+03
2.540757e+03,1.551257e+03
2.552328e+03,1.513258e+03
2.563898e+03,1.518459e+03
2.575469e+03,1.508025e+03
2.587040e+03,1.484431e+03
2.598611e+03,1.473674e+03
2.610182e+03,1.456766e+03
2.621752e+03,1.442188e+03
2.633323e+03,1.436746e+03
2.644894e+03,1.399684e+03
2.656465e+03,1.414347e+03
2.668036e+03,1.400220e+03
2.679606e+03,1.380619e+03
2.691177e+03,1.395440e+03
2.702748e+03,1.361877e+03
2.714319e+03,1.339225e+03
2.725890e+03,1.333129e+03
2.737460e+03,1.321173e+03
2.749031e+03,1.330381e+03
2.760602e+03,1.295113e+03
2.772173e+03,1.309696e+03
2.783744e+03,1.261663e+03
2.795314e+03,1.282948e+03
2.806885e+03,1.246624e+03
2.818456e+03,1.250768e+03
2.830027e+03,1.232465e+03
2.841598e+03,1.224722e+03
2.853168e+03,1.248387e+03
2.864739e+03,1.218210e+03
2.876310e+03,1.234052e+03
2.887881e+03,1.242486e+03
2.899452e+03,1.226021e+03
2.911022e+03,1.215428e+03
2.922593e+03,1.182096e+03
2.934164e+03,1.164285e+03
2.945735e+03,1.174041e+03
2.957306e+03,1.191082e+03
2.968876e+03,1.160567e+03
2.980447e+03,1.127484e+03
2.992018e+03,1.135849e+03
3.003589e+03,1.085013e+03
3.015160e+03,1.084549e+03
3.026730e+03,1.095978e+03
3.038301e+03,1.079176e+03
3.049872e+03,1.065624e+03
3.061443e+03,1.055461e+03
3.073014e+03,1.057614e+03
3.084584e+03,1.060052e+03
3.096155e+03,1.067138e+03
3.107726e+03,1.052237e+03
3.119297e+03,1.015046e+03
3.130868e+03,1.069594e+03
3.142438e+03,1.063239e+03
3.154009e+03,1.032867e+03
3.165580e+03,1.052674e+03
3.177151e+03,1.037166e+03
3.188722e+03,1.054620e+03
3.200292e+03,1.079812e+03
3.211863e+03,0.000000e+00
3.223434e+03,0.000000e+00
3.235005e+03,0.000000e+00
3.246576e+03,0.000000e+00
3.258146e+03,0.000000e+00
3.269717e+03,0.000000e+00
3.281288e+03,0.000000e+00
3.292859e+03,0.000000e+00
3.304430e+03,0.000000e+00
3.316000e+03,0.000000e+00
3.327571e+03,0.000000e+00
3.339142e+03,0.000000e+00
3.350713e+03,0.000000e+00
3.362284e+03,0.000000e+00
3.373854e+03,0.000000e+00
3.385425e+03,0.000000e+00
3.396996e+03,0.000000e+00
3.408567e+03,0.000000e+00
3.420138e+03,0.000000e+00
3.431708e+03,0.000000e+00
3.443279e+03,0.000000e+00
3.454850e+03,0.000000e+00
3.466421e+03,0.000000e+00
3.477992e+03,0.000000e+00
3.489563e+03,0.000000e+00
3.500169e+03,0.000000e+00