Folder: Taff_Bargoed_microplastics_data/RAMAN_data/12022024_r2

Note: README.md
# Taff_Bargoed_microplastics_data

File: black fibre1.CSV
9.931763e+01,0.000000e+00
1.108884e+02,0.000000e+00
1.224592e+02,0.000000e+00
1.340300e+02,0.000000e+00
1.456008e+02,0.000000e+00
1.571716e+02,0.000000e+00
1.687424e+02,0.000000e+00
1.803132e+02,0.000000e+00
1.918840e+02,0.000000e+00
2.034548e+02,9.609816e+02
2.150256e+02,9.464916e+02
2.265964e+02,9.629037e+02
2.381673e+02,9.714459e+02
2.497381e+02,9.762436e+02
2.613088e+02,9.820250e+02
2.728796e+02,9.922880e+02
2.844504e+02,9.990313e+02
2.960212e+02,9.991781e+02
3.075920e+02,1.000909e+03
3.191628e+02,1.017604e+03
3.307336e+02,1.018079e+03
3.423044e+02,1.030681e+03
3.538752e+02,1.018692e+03
3.654461e+02,1.024417e+03
3.770169e+02,1.046415e+03
3.885877e+02,1.024533e+03
4.001585e+02,1.032890e+03
4.117293e+02,1.013349e+03
4.233001e+02,1.020341e+03
4.348709e+02,1.046892e+03
4.464417e+02,1.028785e+03
4.580125e+02,1.032556e+03
4.695833e+02,1.025741e+03
4.811541e+02,1.033801e+03
4.927249e+02,1.047452e+03
5.042957e+02,1.034729e+03
5.158665e+02,1.041669e+03
5.274373e+02,1.018390e+03
5.390081e+02,1.020554e+03
5.505789e+02,1.015571e+03
5.621497e+02,1.024818e+03
5.737205e+02,1.008443e+03
5.852913e+02,1.008035e+03
5.968621e+02,1.009641e+03
6.084329e+02,1.015139e+03
6.200037e+02,1.000326e+03
6.315745e+02,1.008927e+03
6.431453e+02,1.001871e+03
6.547161e+02,1.001290e+03
6.662869e+02,1.005028e+03
6.778577e+02,9.926812e+02
6.894285e+02,9.858741e+02
7.009993e+02,9.914529e+02
7.125701e+02,9.897220e+02
7.241409e+02,9.836377e+02
7.357117e+02,9.763752e+02
7.472825e+02,9.684385e+02
7.588533e+02,9.700954e+02
7.704241e+02,9.601622e+02
7.819949e+02,9.639003e+02
7.935657e+02,9.599556e+02
8.051365e+02,9.477865e+02
8.167073e+02,9.524304e+02
8.282781e+02,9.565818e+02
8.398489e+02,9.409081e+02
8.514197e+02,9.404353e+02
8.629905e+02,9.260155e+02
8.745613e+02,9.350312e+02
8.861321e+02,9.333539e+02
8.977029e+02,9.191035e+02
9.092737e+02,9.243398e+02
9.208445e+02,9.134714e+02
9.324153e+02,9.065011e+02
9.439861e+02,8.975721e+02
9.555569e+02,8.963673e+02
9.671277e+02,8.993073e+02
9.786985e+02,8.797304e+02
9.902693e+02,8.876281e+02
1.001840e+03,8.814047e+02
1.013411e+03,8.793201e+02
1.024982e+03,8.767803e+02
1.036552e+03,8.772286e+02
1.048123e+03,8.776340e+02
1.059694e+03,8.815197e+02
1.071265e+03,8.684838e+02
1.082836e+03,8.780663e+02
1.094406e+03,9.158431e+02
1.105977e+03,8.845560e+02
1.117548e+03,8.993724e+02
1.129119e+03,8.838101e+02
1.140690e+03,8.714841e+02
1.152261e+03,8.793531e+02
1.163831e+03,8.472225e+02
1.175402e+03,8.330775e+02
1.186973e+03,8.304583e+02
1.198544e+03,8.253258e+02
1.210115e+03,8.254447e+02
1.221685e+03,8.083033e+02
1.233256e+03,8.046570e+02
1.244827e+03,8.101270e+02
1.256398e+03,8.072682e+02
1.267969e+03,7.988107e+02
1.279539e+03,8.244404e+02
1.291110e+03,8.157880e+02
1.302681e+03,7.996003e+02
1.314252e+03,7.959100e+02
1.325823e+03,7.923487e+02
1.337393e+03,8.027791e+02
1.348964e+03,8.054304e+02
1.360535e+03,7.912774e+02
1.372106e+03,7.861852e+02
1.383677e+03,7.779583e+02
1.395247e+03,7.556491e+02
1.406818e+03,7.656957e+02
1.418389e+03,7.585281e+02
1.429960e+03,7.558712e+02
1.441531e+03,7.336789e+02
1.453101e+03,7.380763e+02
1.464672e+03,7.237065e+02
1.476243e+03,7.239789e+02
1.487814e+03,7.186016e+02
1.499385e+03,7.082064e+02
1.510955e+03,7.025919e+02
1.522526e+03,6.966326e+02
1.534097e+03,6.926237e+02
1.545668e+03,6.901440e+02
1.557239e+03,6.931885e+02
1.568809e+03,6.989193e+02
1.580380e+03,6.948640e+02
1.591951e+03,6.969337e+02
1.603522e+03,6.672351e+02
1.615093e+03,6.728271e+02
1.626663e+03,6.550925e+02
1.638234e+03,6.604701e+02
1.649805e+03,6.513261e+02
1.661376e+03,6.405901e+02
1.672947e+03,6.388873e+02
1.684517e+03,6.390355e+02
1.696088e+03,6.264061e+02
1.707659e+03,6.355247e+02
1.719230e+03,6.202612e+02
1.730801e+03,6.207988e+02
1.742371e+03,6.182771e+02
1.753942e+03,6.153617e+02
1.765513e+03,6.096427e+02
1.777084e+03,6.064847e+02
1.788655e+03,5.956140e+02
1.800225e+03,5.904330e+02
1.811796e+03,5.890321e+02
1.823367e+03,5.807039e+02
1.834938e+03,5.805449e+02
1.846509e+03,5.805671e+02
1.858079e+03,5.674269e+02
1.869650e+03,5.655761e+02
1.881221e+03,5.553918e+02
1.892792e+03,5.481254e+02
1.904363e+03,5.437347e+02
1.915933e+03,5.472801e+02
1.927504e+03,5.401082e+02
1.939075e+03,5.301014e+02
1.950646e+03,5.278079e+02
1.962217e+03,5.313640e+02
1.973787e+03,5.206996e+02
1.985358e+03,5.132686e+02
1.996929e+03,5.060256e+02
2.008500e+03,5.019547e+02
2.020071e+03,4.913010e+02
2.031641e+03,4.866714e+02
2.043212e+03,4.755744e+02
2.054783e+03,4.785396e+02
2.066354e+03,4.736917e+02
2.077925e+03,4.659345e+02
2.089496e+03,4.717132e+02
2.101066e+03,4.632103e+02
2.112637e+03,4.494786e+02
2.124208e+03,4.576812e+02
2.135779e+03,4.406340e+02
2.147350e+03,4.326133e+02
2.158920e+03,4.291372e+02
2.170491e+03,4.223141e+02
2.182062e+03,4.300876e+02
2.193633e+03,4.180977e+02
2.205204e+03,4.232143e+02
2.216774e+03,4.110482e+02
2.228345e+03,4.068394e+02
2.239916e+03,3.908793e+02
2.251487e+03,3.981372e+02
2.263058e+03,3.896295e+02
2.274628e+03,3.858372e+02
2.286199e+03,3.804097e+02
2.297770e+03,3.794993e+02
2.309341e+03,3.721533e+02
2.320912e+03,3.726298e+02
2.332482e+03,3.663258e+02
2.344053e+03,3.652763e+02
2.355624e+03,3.613363e+02
2.367195e+03,3.528179e+02
2.378766e+03,3.528128e+02
2.390336e+03,3.495367e+02
2.401907e+03,3.457476e+02
2.413478e+03,3.371886e+02
2.425049e+03,3.325461e+02
2.436620e+03,3.309945e+02
2.448190e+03,3.236158e+02
2.459761e+03,3.264898e+02
2.471332e+03,3.243372e+02
2.482903e+03,3.145787e+02
2.494474e+03,3.161408e+02
2.506044e+03,3.211588e+02
2.517615e+03,3.123083e+02
2.529186e+03,3.007663e+02
2.540757e+03,3.035165e+02
2.552328e+03,3.021698e+02
2.563898e+03,3.085034e+02
2.575469e+03,3.089427e+02
2.587040e+03,2.915367e+02
2.598611e+03,2.905965e+02
2.610182e+03,2.871727e+02
2.621752e+03,2.917928e+02
2.633323e+03,2.788531e+02
2.644894e+03,2.829727e+02
2.656465e+03,2.748084e+02
2.668036e+03,2.860445e+02
2.679606e+03,2.700974e+02
2.691177e+03,2.646804e+02
2.702748e+03,2.653964e+02
2.714319e+03,2.681075e+02
2.725890e+03,2.552600e+02
2.737460e+03,2.548931e+02
2.749031e+03,2.733270e+02
2.760602e+03,2.520251e+02
2.772173e+03,2.629218e+02
2.783744e+03,2.528151e+02
2.795314e+03,2.433401e+02
2.806885e+03,2.435905e+02
2.818456e+03,2.518239e+02
2.830027e+03,2.410007e+02
2.841598e+03,2.554941e+02
2.853168e+03,2.757139e+02
2.864739e+03,2.619449e+02
2.876310e+03,2.780341e+02
2.887881e+03,2.932150e+02
2.899452e+03,3.003901e+02
2.911022e+03,2.835380e+02
2.922593e+03,2.666457e+02
2.934164e+03,2.717726e+02
2.945735e+03,2.518238e+02
2.957306e+03,2.772329e+02
2.968876e+03,2.335203e+02
2.980447e+03,2.220261e+02
2.992018e+03,2.299513e+02
3.003589e+03,2.289117e+02
3.015160e+03,2.139802e+02
3.026730e+03,2.146389e+02
3.038301e+03,2.001013e+02
3.049872e+03,2.179653e+02
3.061443e+03,2.105178e+02
3.073014e+03,2.022158e+02
3.084584e+03,2.119158e+02
3.096155e+03,2.135906e+02
3.107726e+03,2.140831e+02
3.119297e+03,2.167371e+02
3.130868e+03,2.351903e+02
3.142438e+03,2.319514e+02
3.154009e+03,2.401110e+02
3.165580e+03,2.198911e+02
3.177151e+03,2.025030e+02
3.188722e+03,1.929233e+02
3.200292e+03,2.585378e+02
3.211863e+03,0.000000e+00
3.223434e+03,0.000000e+00
3.235005e+03,0.000000e+00
3.246576e+03,0.000000e+00
3.258146e+03,0.000000e+00
3.269717e+03,0.000000e+00
3.281288e+03,0.000000e+00
3.292859e+03,0.000000e+00
3.304430e+03,0.000000e+00
3.316000e+03,0.000000e+00
3.327571e+03,0.000000e+00
3.339142e+03,0.000000e+00
3.350713e+03,0.000000e+00
3.362284e+03,0.000000e+00
3.373854e+03,0.000000e+00
3.385425e+03,0.000000e+00
3.396996e+03,0.000000e+00
3.408567e+03,0.000000e+00
3.420138e+03,0.000000e+00
3.431708e+03,0.000000e+00
3.443279e+03,0.000000e+00
3.454850e+03,0.000000e+00
3.466421e+03,0.000000e+00
3.477992e+03,0.000000e+00
3.489563e+03,0.000000e+00
3.500169e+03,0.000000e+00

File: black fibre2.CSV
9.931763e+01,0.000000e+00
1.108884e+02,0.000000e+00
1.224592e+02,0.000000e+00
1.340300e+02,0.000000e+00
1.456008e+02,0.000000e+00
1.571716e+02,0.000000e+00
1.687424e+02,0.000000e+00
1.803132e+02,0.000000e+00
1.918840e+02,0.000000e+00
2.034548e+02,1.959795e+03
2.150256e+02,1.964653e+03
2.265964e+02,1.959537e+03
2.381673e+02,1.973308e+03
2.497381e+02,1.959609e+03
2.613088e+02,1.953130e+03
2.728796e+02,1.956237e+03
2.844504e+02,1.954958e+03
2.960212e+02,1.953139e+03
3.075920e+02,1.948150e+03
3.191628e+02,1.949216e+03
3.307336e+02,1.943080e+03
3.423044e+02,1.951459e+03
3.538752e+02,1.937246e+03
3.654461e+02,1.927881e+03
3.770169e+02,1.947072e+03
3.885877e+02,1.927752e+03
4.001585e+02,1.908272e+03
4.117293e+02,1.908564e+03
4.233001e+02,1.913538e+03
4.348709e+02,1.901917e+03
4.464417e+02,1.901949e+03
4.580125e+02,1.888407e+03
4.695833e+02,1.892810e+03
4.811541e+02,1.893444e+03
4.927249e+02,1.880449e+03
5.042957e+02,1.883731e+03
5.158665e+02,1.869778e+03
5.274373e+02,1.885447e+03
5.390081e+02,1.864617e+03
5.505789e+02,1.858939e+03
5.621497e+02,1.861651e+03
5.737205e+02,1.857260e+03
5.852913e+02,1.863677e+03
5.968621e+02,1.848873e+03
6.084329e+02,1.838655e+03
6.200037e+02,1.821552e+03
6.315745e+02,1.833884e+03
6.431453e+02,1.815326e+03
6.547161e+02,1.812123e+03
6.662869e+02,1.810395e+03
6.778577e+02,1.802258e+03
6.894285e+02,1.780759e+03
7.009993e+02,1.799984e+03
7.125701e+02,1.777722e+03
7.241409e+02,1.772822e+03
7.357117e+02,1.768290e+03
7.472825e+02,1.758003e+03
7.588533e+02,1.757668e+03
7.704241e+02,1.743582e+03
7.819949e+02,1.731863e+03
7.935657e+02,1.730464e+03
8.051365e+02,1.725788e+03
8.167073e+02,1.716823e+03
8.282781e+02,1.713385e+03
8.398489e+02,1.720761e+03
8.514197e+02,1.704389e+03
8.629905e+02,1.694112e+03
8.745613e+02,1.693744e+03
8.861321e+02,1.699356e+03
8.977029e+02,1.670673e+03
9.092737e+02,1.660632e+03
9.208445e+02,1.656841e+03
9.324153e+02,1.663733e+03
9.439861e+02,1.649312e+03
9.555569e+02,1.647816e+03
9.671277e+02,1.650656e+03
9.786985e+02,1.638108e+03
9.902693e+02,1.624649e+03
1.001840e+03,1.621025e+03
1.013411e+03,1.609264e+03
1.024982e+03,1.604621e+03
1.036552e+03,1.592267e+03
1.048123e+03,1.592389e+03
1.059694e+03,1.586439e+03
1.071265e+03,1.588351e+03
1.082836e+03,1.589662e+03
1.094406e+03,1.560153e+03
1.105977e+03,1.570097e+03
1.117548e+03,1.557578e+03
1.129119e+03,1.554093e+03
1.140690e+03,1.558936e+03
1.152261e+03,1.555505e+03
1.163831e+03,1.558943e+03
1.175402e+03,1.540382e+03
1.186973e+03,1.530124e+03
1.198544e+03,1.533307e+03
1.210115e+03,1.536752e+03
1.221685e+03,1.521000e+03
1.233256e+03,1.518063e+03
1.244827e+03,1.523082e+03
1.256398e+03,1.515787e+03
1.267969e+03,1.515482e+03
1.279539e+03,1.523938e+03
1.291110e+03,1.532165e+03
1.302681e+03,1.526312e+03
1.314252e+03,1.571758e+03
1.325823e+03,1.595850e+03
1.337393e+03,1.544780e+03
1.348964e+03,1.551285e+03
1.360535e+03,1.521443e+03
1.372106e+03,1.477759e+03
1.383677e+03,1.469528e+03
1.395247e+03,1.467118e+03
1.406818e+03,1.445360e+03
1.418389e+03,1.439512e+03
1.429960e+03,1.434997e+03
1.441531e+03,1.425581e+03
1.453101e+03,1.411413e+03
1.464672e+03,1.405032e+03
1.476243e+03,1.398380e+03
1.487814e+03,1.385415e+03
1.499385e+03,1.385765e+03
1.510955e+03,1.362870e+03
1.522526e+03,1.363948e+03
1.534097e+03,1.357180e+03
1.545668e+03,1.361032e+03
1.557239e+03,1.361177e+03
1.568809e+03,1.358089e+03
1.580380e+03,1.357862e+03
1.591951e+03,1.357409e+03
1.603522e+03,1.354502e+03
1.615093e+03,1.323400e+03
1.626663e+03,1.310155e+03
1.638234e+03,1.309374e+03
1.649805e+03,1.294450e+03
1.661376e+03,1.275630e+03
1.672947e+03,1.266485e+03
1.684517e+03,1.272738e+03
1.696088e+03,1.244533e+03
1.707659e+03,1.248479e+03
1.719230e+03,1.241432e+03
1.730801e+03,1.230451e+03
1.742371e+03,1.225842e+03
1.753942e+03,1.209082e+03
1.765513e+03,1.216642e+03
1.777084e+03,1.202930e+03
1.788655e+03,1.197113e+03
1.800225e+03,1.182865e+03
1.811796e+03,1.181081e+03
1.823367e+03,1.169684e+03
1.834938e+03,1.166554e+03
1.846509e+03,1.168039e+03
1.858079e+03,1.156255e+03
1.869650e+03,1.148950e+03
1.881221e+03,1.146009e+03
1.892792e+03,1.136545e+03
1.904363e+03,1.123302e+03
1.915933e+03,1.125051e+03
1.927504e+03,1.112072e+03
1.939075e+03,1.102246e+03
1.950646e+03,1.089162e+03
1.962217e+03,1.081239e+03
1.973787e+03,1.090733e+03
1.985358e+03,1.063879e+03
1.996929e+03,1.059165e+03
2.008500e+03,1.053737e+03
2.020071e+03,1.040598e+03
2.031641e+03,1.048602e+03
2.043212e+03,1.028372e+03
2.054783e+03,1.012564e+03
2.066354e+03,1.015575e+03
2.077925e+03,1.015612e+03
2.089496e+03,9.995558e+02
2.101066e+03,9.953368e+02
2.112637e+03,9.761536e+02
2.124208e+03,9.747830e+02
2.135779e+03,9.617849e+02
2.147350e+03,9.478922e+02
2.158920e+03,9.481954e+02
2.170491e+03,9.354825e+02
2.182062e+03,9.147822e+02
2.193633e+03,9.172731e+02
2.205204e+03,9.120639e+02
2.216774e+03,8.960668e+02
2.228345e+03,8.911411e+02
2.239916e+03,8.786879e+02
2.251487e+03,8.831477e+02
2.263058e+03,8.840014e+02
2.274628e+03,8.631194e+02
2.286199e+03,8.448936e+02
2.297770e+03,8.559174e+02
2.309341e+03,8.525553e+02
2.320912e+03,8.351598e+02
2.332482e+03,8.155226e+02
2.344053e+03,8.216578e+02
2.355624e+03,8.034425e+02
2.367195e+03,7.828992e+02
2.378766e+03,7.878876e+02
2.390336e+03,7.889161e+02
2.401907e+03,7.787657e+02
2.413478e+03,7.780107e+02
2.425049e+03,7.626263e+02
2.436620e+03,7.640527e+02
2.448190e+03,7.525273e+02
2.459761e+03,7.415165e+02
2.471332e+03,7.408629e+02
2.482903e+03,7.388334e+02
2.494474e+03,7.249291e+02
2.506044e+03,7.307939e+02
2.517615e+03,7.146689e+02
2.529186e+03,7.136210e+02
2.540757e+03,7.096104e+02
2.552328e+03,7.067470e+02
2.563898e+03,7.181463e+02
2.575469e+03,7.136252e+02
2.587040e+03,6.891412e+02
2.598611e+03,6.827803e+02
2.610182e+03,6.903322e+02
2.621752e+03,6.774830e+02
2.633323e+03,6.665422e+02
2.644894e+03,6.629811e+02
2.656465e+03,6.744050e+02
2.668036e+03,6.635739e+02
2.679606e+03,6.536263e+02
2.691177e+03,6.575754e+02
2.702748e+03,6.570179e+02
2.714319e+03,6.506902e+02
2.725890e+03,6.350657e+02
2.737460e+03,6.360305e+02
2.749031e+03,6.267029e+02
2.760602e+03,6.298569e+02
2.772173e+03,6.253976e+02
2.783744e+03,6.268799e+02
2.795314e+03,6.094346e+02
2.806885e+03,5.985283e+02
2.818456e+03,6.058280e+02
2.830027e+03,5.952554e+02
2.841598e+03,6.097404e+02
2.853168e+03,6.071755e+02
2.864739e+03,6.115421e+02
2.876310e+03,6.082930e+02
2.887881e+03,5.866190e+02
2.899452e+03,6.037831e+02
2.911022e+03,5.940872e+02
2.922593e+03,5.937748e+02
2.934164e+03,6.099318e+02
2.945735e+03,5.870539e+02
2.957306e+03,6.213712e+02
2.968876e+03,5.863824e+02
2.980447e+03,5.642495e+02
2.992018e+03,5.700040e+02
3.003589e+03,5.712299e+02
3.015160e+03,5.433281e+02
3.026730e+03,5.602129e+02
3.038301e+03,5.575485e+02
3.049872e+03,5.360374e+02
3.061443e+03,5.247907e+02
3.073014e+03,5.379279e+02
3.084584e+03,5.368619e+02
3.096155e+03,5.294744e+02
3.107726e+03,5.503875e+02
3.119297e+03,5.343903e+02
3.130868e+03,5.349547e+02
3.142438e+03,5.423779e+02
3.154009e+03,5.724662e+02
3.165580e+03,5.023487e+02
3.177151e+03,5.112530e+02
3.188722e+03,5.476265e+02
3.200292e+03,5.557450e+02
3.211863e+03,0.000000e+00
3.223434e+03,0.000000e+00
3.235005e+03,0.000000e+00
3.246576e+03,0.000000e+00
3.258146e+03,0.000000e+00
3.269717e+03,0.000000e+00
3.281288e+03,0.000000e+00
3.292859e+03,0.000000e+00
3.304430e+03,0.000000e+00
3.316000e+03,0.000000e+00
3.327571e+03,0.000000e+00
3.339142e+03,0.000000e+00
3.350713e+03,0.000000e+00
3.362284e+03,0.000000e+00
3.373854e+03,0.000000e+00
3.385425e+03,0.000000e+00
3.396996e+03,0.000000e+00
3.408567e+03,0.000000e+00
3.420138e+03,0.000000e+00
3.431708e+03,0.000000e+00
3.443279e+03,0.000000e+00
3.454850e+03,0.000000e+00
3.466421e+03,0.000000e+00
3.477992e+03,0.000000e+00
3.489563e+03,0.000000e+00
3.500169e+03,0.000000e+00

File: black fibre3.CSV
9.931763e+01,0.000000e+00
1.108884e+02,0.000000e+00
1.224592e+02,0.000000e+00
1.340300e+02,0.000000e+00
1.456008e+02,0.000000e+00
1.571716e+02,0.000000e+00
1.687424e+02,0.000000e+00
1.803132e+02,0.000000e+00
1.918840e+02,0.000000e+00
2.034548e+02,6.649938e+02
2.150256e+02,6.679297e+02
2.265964e+02,6.657157e+02
2.381673e+02,6.618476e+02
2.497381e+02,6.686982e+02
2.613088e+02,6.618207e+02
2.728796e+02,6.681943e+02
2.844504e+02,6.579771e+02
2.960212e+02,6.570058e+02
3.075920e+02,6.657020e+02
3.191628e+02,6.737428e+02
3.307336e+02,6.722277e+02
3.423044e+02,6.800750e+02
3.538752e+02,6.730115e+02
3.654461e+02,6.670291e+02
3.770169e+02,6.961609e+02
3.885877e+02,6.742881e+02
4.001585e+02,6.641824e+02
4.117293e+02,6.663152e+02
4.233001e+02,6.730519e+02
4.348709e+02,6.787379e+02
4.464417e+02,6.734423e+02
4.580125e+02,6.773278e+02
4.695833e+02,6.547314e+02
4.811541e+02,6.659836e+02
4.927249e+02,6.667975e+02
5.042957e+02,6.628369e+02
5.158665e+02,6.675242e+02
5.274373e+02,6.627940e+02
5.390081e+02,6.533067e+02
5.505789e+02,6.509521e+02
5.621497e+02,6.675850e+02
5.737205e+02,6.571871e+02
5.852913e+02,6.643195e+02
5.968621e+02,6.482584e+02
6.084329e+02,6.566238e+02
6.200037e+02,6.514910e+02
6.315745e+02,6.546118e+02
6.431453e+02,6.576437e+02
6.547161e+02,6.465045e+02
6.662869e+02,6.531718e+02
6.778577e+02,6.464791e+02
6.894285e+02,6.510570e+02
7.009993e+02,6.503106e+02
7.125701e+02,6.513580e+02
7.241409e+02,6.512853e+02
7.357117e+02,6.566058e+02
7.472825e+02,6.436543e+02
7.588533e+02,6.426149e+02
7.704241e+02,6.476983e+02
7.819949e+02,6.503138e+02
7.935657e+02,6.487155e+02
8.051365e+02,6.463560e+02
8.167073e+02,6.422877e+02
8.282781e+02,6.414863e+02
8.398489e+02,6.482549e+02
8.514197e+02,6.416938e+02
8.629905e+02,6.456149e+02
8.745613e+02,6.425114e+02
8.861321e+02,6.519040e+02
8.977029e+02,6.424778e+02
9.092737e+02,6.460656e+02
9.208445e+02,6.370149e+02
9.324153e+02,6.398754e+02
9.439861e+02,6.330324e+02
9.555569e+02,6.452039e+02
9.671277e+02,6.411960e+02
9.786985e+02,6.352899e+02
9.902693e+02,6.443018e+02
1.001840e+03,6.405827e+02
1.013411e+03,6.389359e+02
1.024982e+03,6.430511e+02
1.036552e+03,6.502410e+02
1.048123e+03,6.462496e+02
1.059694e+03,6.461120e+02
1.071265e+03,6.522211e+02
1.082836e+03,6.597097e+02
1.094406e+03,6.902783e+02
1.105977e+03,6.628776e+02
1.117548e+03,6.786452e+02
1.129119e+03,6.622057e+02
1.140690e+03,6.520027e+02
1.152261e+03,6.598656e+02
1.163831e+03,6.543984e+02
1.175402e+03,6.418226e+02
1.186973e+03,6.458264e+02
1.198544e+03,6.467601e+02
1.210115e+03,6.561957e+02
1.221685e+03,6.510355e+02
1.233256e+03,6.508241e+02
1.244827e+03,6.611541e+02
1.256398e+03,6.624818e+02
1.267969e+03,6.523810e+02
1.279539e+03,6.700194e+02
1.291110e+03,6.708187e+02
1.302681e+03,6.704464e+02
1.314252e+03,6.804383e+02
1.325823e+03,6.825518e+02
1.337393e+03,6.832053e+02
1.348964e+03,6.808268e+02
1.360535e+03,6.888162e+02
1.372106e+03,6.944229e+02
1.383677e+03,6.851185e+02
1.395247e+03,6.725266e+02
1.406818e+03,6.644439e+02
1.418389e+03,6.622537e+02
1.429960e+03,6.624755e+02
1.441531e+03,6.578478e+02
1.453101e+03,6.561119e+02
1.464672e+03,6.637847e+02
1.476243e+03,6.626595e+02
1.487814e+03,6.499238e+02
1.499385e+03,6.463926e+02
1.510955e+03,6.448566e+02
1.522526e+03,6.487888e+02
1.534097e+03,6.522701e+02
1.545668e+03,6.631390e+02
1.557239e+03,6.616684e+02
1.568809e+03,6.709245e+02
1.580380e+03,6.750169e+02
1.591951e+03,6.705705e+02
1.603522e+03,6.743005e+02
1.615093e+03,6.616800e+02
1.626663e+03,6.474268e+02
1.638234e+03,6.323770e+02
1.649805e+03,6.360557e+02
1.661376e+03,6.299252e+02
1.672947e+03,6.339919e+02
1.684517e+03,6.391005e+02
1.696088e+03,6.271519e+02
1.707659e+03,6.266891e+02
1.719230e+03,6.288500e+02
1.730801e+03,6.174889e+02
1.742371e+03,6.253150e+02
1.753942e+03,6.232391e+02
1.765513e+03,6.284154e+02
1.777084e+03,6.195437e+02
1.788655e+03,6.113147e+02
1.800225e+03,6.169642e+02
1.811796e+03,6.167038e+02
1.823367e+03,6.109232e+02
1.834938e+03,6.175203e+02
1.846509e+03,6.172646e+02
1.858079e+03,6.186140e+02
1.869650e+03,6.055519e+02
1.881221e+03,6.176155e+02
1.892792e+03,6.041668e+02
1.904363e+03,6.076658e+02
1.915933e+03,6.037893e+02
1.927504e+03,6.141195e+02
1.939075e+03,5.987607e+02
1.950646e+03,6.048828e+02
1.962217e+03,5.961479e+02
1.973787e+03,6.040492e+02
1.985358e+03,6.042198e+02
1.996929e+03,5.880500e+02
2.008500e+03,5.843239e+02
2.020071e+03,5.889182e+02
2.031641e+03,5.916888e+02
2.043212e+03,5.840275e+02
2.054783e+03,5.912248e+02
2.066354e+03,5.798477e+02
2.077925e+03,5.870537e+02
2.089496e+03,5.837146e+02
2.101066e+03,5.816797e+02
2.112637e+03,5.748580e+02
2.124208e+03,5.846493e+02
2.135779e+03,5.733721e+02
2.147350e+03,5.650950e+02
2.158920e+03,5.710925e+02
2.170491e+03,5.680945e+02
2.182062e+03,5.574012e+02
2.193633e+03,5.670428e+02
2.205204e+03,5.787869e+02
2.216774e+03,5.698597e+02
2.228345e+03,5.602464e+02
2.239916e+03,5.641758e+02
2.251487e+03,5.583135e+02
2.263058e+03,5.549269e+02
2.274628e+03,5.535873e+02
2.286199e+03,5.537201e+02
2.297770e+03,5.464345e+02
2.309341e+03,5.491722e+02
2.320912e+03,5.494432e+02
2.332482e+03,5.487169e+02
2.344053e+03,5.494961e+02
2.355624e+03,5.387055e+02
2.367195e+03,5.358708e+02
2.378766e+03,5.346070e+02
2.390336e+03,5.303934e+02
2.401907e+03,5.391656e+02
2.413478e+03,5.296540e+02
2.425049e+03,5.304146e+02
2.436620e+03,5.287811e+02
2.448190e+03,5.275989e+02
2.459761e+03,5.375204e+02
2.471332e+03,5.139866e+02
2.482903e+03,5.261497e+02
2.494474e+03,5.230679e+02
2.506044e+03,5.204442e+02
2.517615e+03,5.354329e+02
2.529186e+03,5.294736e+02
2.540757e+03,5.294141e+02
2.552328e+03,5.308665e+02
2.563898e+03,5.366136e+02
2.575469e+03,5.258134e+02
2.587040e+03,5.167496e+02
2.598611e+03,5.246418e+02
2.610182e+03,5.160484e+02
2.621752e+03,5.101385e+02
2.633323e+03,5.183962e+02
2.644894e+03,5.065434e+02
2.656465e+03,5.180060e+02
2.668036e+03,5.243762e+02
2.679606e+03,5.148739e+02
2.691177e+03,5.183004e+02
2.702748e+03,5.153224e+02
2.714319e+03,5.205701e+02
2.725890e+03,5.212249e+02
2.737460e+03,5.139579e+02
2.749031e+03,5.216090e+02
2.760602e+03,5.158612e+02
2.772173e+03,5.066007e+02
2.783744e+03,5.084598e+02
2.795314e+03,4.983940e+02
2.806885e+03,5.211107e+02
2.818456e+03,5.230338e+02
2.830027e+03,5.125448e+02
2.841598e+03,5.323889e+02
2.853168e+03,5.469775e+02
2.864739e+03,5.315824e+02
2.876310e+03,5.448461e+02
2.887881e+03,5.546318e+02
2.899452e+03,5.636437e+02
2.911022e+03,5.570765e+02
2.922593e+03,5.356454e+02
2.934164e+03,5.333483e+02
2.945735e+03,5.436491e+02
2.957306e+03,5.634440e+02
2.968876e+03,5.425826e+02
2.980447e+03,5.023723e+02
2.992018e+03,5.150092e+02
3.003589e+03,4.968389e+02
3.015160e+03,4.987557e+02
3.026730e+03,4.959922e+02
3.038301e+03,5.036891e+02
3.049872e+03,4.964574e+02
3.061443e+03,4.967389e+02
3.073014e+03,5.035616e+02
3.084584e+03,5.099128e+02
3.096155e+03,4.980465e+02
3.107726e+03,5.329201e+02
3.119297e+03,5.230012e+02
3.130868e+03,5.046313e+02
3.142438e+03,5.190769e+02
3.154009e+03,5.219053e+02
3.165580e+03,5.124037e+02
3.177151e+03,5.248351e+02
3.188722e+03,4.910148e+02
3.200292e+03,5.375706e+02
3.211863e+03,0.000000e+00
3.223434e+03,0.000000e+00
3.235005e+03,0.000000e+00
3.246576e+03,0.000000e+00
3.258146e+03,0.000000e+00
3.269717e+03,0.000000e+00
3.281288e+03,0.000000e+00
3.292859e+03,0.000000e+00
3.304430e+03,0.000000e+00
3.316000e+03,0.000000e+00
3.327571e+03,0.000000e+00
3.339142e+03,0.000000e+00
3.350713e+03,0.000000e+00
3.362284e+03,0.000000e+00
3.373854e+03,0.000000e+00
3.385425e+03,0.000000e+00
3.396996e+03,0.000000e+00
3.408567e+03,0.000000e+00
3.420138e+03,0.000000e+00
3.431708e+03,0.000000e+00
3.443279e+03,0.000000e+00
3.454850e+03,0.000000e+00
3.466421e+03,0.000000e+00
3.477992e+03,0.000000e+00
3.489563e+03,0.000000e+00
3.500169e+03,0.000000e+00