Folder: Taff_Bargoed_microplastics_data/RAMAN_data/12022024_r1 (part 4)

File: blue fibre2.CSV
9.931763e+01,0.000000e+00
1.108884e+02,0.000000e+00
1.224592e+02,0.000000e+00
1.340300e+02,0.000000e+00
1.456008e+02,0.000000e+00
1.571716e+02,0.000000e+00
1.687424e+02,0.000000e+00
1.803132e+02,0.000000e+00
1.918840e+02,0.000000e+00
2.034548e+02,1.085548e+03
2.150256e+02,1.096582e+03
2.265964e+02,1.104119e+03
2.381673e+02,1.113868e+03
2.497381e+02,1.114313e+03
2.613088e+02,1.118320e+03
2.728796e+02,1.124521e+03
2.844504e+02,1.146249e+03
2.960212e+02,1.148101e+03
3.075920e+02,1.145341e+03
3.191628e+02,1.150506e+03
3.307336e+02,1.154635e+03
3.423044e+02,1.162307e+03
3.538752e+02,1.164785e+03
3.654461e+02,1.167694e+03
3.770169e+02,1.199414e+03
3.885877e+02,1.173592e+03
4.001585e+02,1.167934e+03
4.117293e+02,1.172012e+03
4.233001e+02,1.169025e+03
4.348709e+02,1.190365e+03
4.464417e+02,1.180465e+03
4.580125e+02,1.176710e+03
4.695833e+02,1.163902e+03
4.811541e+02,1.168391e+03
4.927249e+02,1.178332e+03
5.042957e+02,1.162858e+03
5.158665e+02,1.180253e+03
5.274373e+02,1.163813e+03
5.390081e+02,1.159914e+03
5.505789e+02,1.145513e+03
5.621497e+02,1.151924e+03
5.737205e+02,1.151479e+03
5.852913e+02,1.146099e+03
5.968621e+02,1.146764e+03
6.084329e+02,1.150280e+03
6.200037e+02,1.146017e+03
6.315745e+02,1.137647e+03
6.431453e+02,1.128406e+03
6.547161e+02,1.127353e+03
6.662869e+02,1.129566e+03
6.778577e+02,1.119691e+03
6.894285e+02,1.115736e+03
7.009993e+02,1.115556e+03
7.125701e+02,1.114553e+03
7.241409e+02,1.108699e+03
7.357117e+02,1.101190e+03
7.472825e+02,1.088837e+03
7.588533e+02,1.082222e+03
7.704241e+02,1.083967e+03
7.819949e+02,1.079067e+03
7.935657e+02,1.075355e+03
8.051365e+02,1.066238e+03
8.167073e+02,1.066786e+03
8.282781e+02,1.059583e+03
8.398489e+02,1.057154e+03
8.514197e+02,1.046407e+03
8.629905e+02,1.044605e+03
8.745613e+02,1.055961e+03
8.861321e+02,1.042924e+03
8.977029e+02,1.033340e+03
9.092737e+02,1.035203e+03
9.208445e+02,1.021300e+03
9.324153e+02,1.021418e+03
9.439861e+02,1.013162e+03
9.555569e+02,1.006814e+03
9.671277e+02,1.004345e+03
9.786985e+02,1.003123e+03
9.902693e+02,1.000207e+03
1.001840e+03,9.943438e+02
1.013411e+03,9.891355e+02
1.024982e+03,9.929075e+02
1.036552e+03,9.863058e+02
1.048123e+03,9.915279e+02
1.059694e+03,9.829471e+02
1.071265e+03,9.844667e+02
1.082836e+03,9.905912e+02
1.094406e+03,1.029581e+03
1.105977e+03,9.942603e+02
1.117548e+03,1.002561e+03
1.129119e+03,9.855088e+02
1.140690e+03,9.790299e+02
1.152261e+03,9.739405e+02
1.163831e+03,9.654040e+02
1.175402e+03,9.532513e+02
1.186973e+03,9.523534e+02
1.198544e+03,9.504768e+02
1.210115e+03,9.556682e+02
1.221685e+03,9.392969e+02
1.233256e+03,9.402930e+02
1.244827e+03,9.388845e+02
1.256398e+03,9.380605e+02
1.267969e+03,9.392718e+02
1.279539e+03,9.533933e+02
1.291110e+03,9.398769e+02
1.302681e+03,9.432396e+02
1.314252e+03,9.366244e+02
1.325823e+03,9.394852e+02
1.337393e+03,9.468416e+02
1.348964e+03,9.411927e+02
1.360535e+03,9.446406e+02
1.372106e+03,9.485721e+02
1.383677e+03,9.458305e+02
1.395247e+03,9.265368e+02
1.406818e+03,9.213104e+02
1.418389e+03,9.177411e+02
1.429960e+03,9.210815e+02
1.441531e+03,9.146243e+02
1.453101e+03,9.104211e+02
1.464672e+03,9.184017e+02
1.476243e+03,9.105138e+02
1.487814e+03,9.049982e+02
1.499385e+03,9.001996e+02
1.510955e+03,9.056788e+02
1.522526e+03,8.861563e+02
1.534097e+03,8.920707e+02
1.545668e+03,8.821813e+02
1.557239e+03,8.849799e+02
1.568809e+03,8.890206e+02
1.580380e+03,8.789803e+02
1.591951e+03,8.746287e+02
1.603522e+03,8.743461e+02
1.615093e+03,8.741639e+02
1.626663e+03,8.658774e+02
1.638234e+03,8.528757e+02
1.649805e+03,8.497499e+02
1.661376e+03,8.568441e+02
1.672947e+03,8.430114e+02
1.684517e+03,8.526823e+02
1.696088e+03,8.291107e+02
1.707659e+03,8.329930e+02
1.719230e+03,8.200023e+02
1.730801e+03,8.193307e+02
1.742371e+03,8.247161e+02
1.753942e+03,8.125570e+02
1.765513e+03,8.001953e+02
1.777084e+03,8.004207e+02
1.788655e+03,7.855472e+02
1.800225e+03,7.718357e+02
1.811796e+03,7.728347e+02
1.823367e+03,7.746584e+02
1.834938e+03,7.750912e+02
1.846509e+03,7.652480e+02
1.858079e+03,7.550440e+02
1.869650e+03,7.553821e+02
1.881221e+03,7.354988e+02
1.892792e+03,7.345491e+02
1.904363e+03,7.182828e+02
1.915933e+03,7.208718e+02
1.927504e+03,7.165104e+02
1.939075e+03,7.132067e+02
1.950646e+03,6.961512e+02
1.962217e+03,7.012992e+02
1.973787e+03,6.915905e+02
1.985358e+03,6.795886e+02
1.996929e+03,6.761279e+02
2.008500e+03,6.712149e+02
2.020071e+03,6.702748e+02
2.031641e+03,6.602436e+02
2.043212e+03,6.398177e+02
2.054783e+03,6.355189e+02
2.066354e+03,6.395427e+02
2.077925e+03,6.378199e+02
2.089496e+03,6.246515e+02
2.101066e+03,6.176879e+02
2.112637e+03,6.164727e+02
2.124208e+03,6.056050e+02
2.135779e+03,5.912676e+02
2.147350e+03,5.838842e+02
2.158920e+03,5.839405e+02
2.170491e+03,5.813199e+02
2.182062e+03,5.756195e+02
2.193633e+03,5.760188e+02
2.205204e+03,5.642513e+02
2.216774e+03,5.633363e+02
2.228345e+03,5.459908e+02
2.239916e+03,5.482072e+02
2.251487e+03,5.383747e+02
2.263058e+03,5.302103e+02
2.274628e+03,5.251668e+02
2.286199e+03,5.241335e+02
2.297770e+03,5.164011e+02
2.309341e+03,5.031605e+02
2.320912e+03,5.034279e+02
2.332482e+03,5.094071e+02
2.344053e+03,5.094142e+02
2.355624e+03,4.922573e+02
2.367195e+03,4.901877e+02
2.378766e+03,4.864007e+02
2.390336e+03,4.775282e+02
2.401907e+03,4.834586e+02
2.413478e+03,4.726736e+02
2.425049e+03,4.666843e+02
2.436620e+03,4.583242e+02
2.448190e+03,4.474884e+02
2.459761e+03,4.569879e+02
2.471332e+03,4.404613e+02
2.482903e+03,4.463354e+02
2.494474e+03,4.357030e+02
2.506044e+03,4.343262e+02
2.517615e+03,4.352153e+02
2.529186e+03,4.322856e+02
2.540757e+03,4.195132e+02
2.552328e+03,4.324356e+02
2.563898e+03,4.302887e+02
2.575469e+03,4.266548e+02
2.587040e+03,4.102890e+02
2.598611e+03,4.208590e+02
2.610182e+03,4.043782e+02
2.621752e+03,3.990290e+02
2.633323e+03,4.096942e+02
2.644894e+03,4.052930e+02
2.656465e+03,4.142155e+02
2.668036e+03,3.916624e+02
2.679606e+03,3.927842e+02
2.691177e+03,3.879710e+02
2.702748e+03,3.888926e+02
2.714319e+03,4.037436e+02
2.725890e+03,3.800216e+02
2.737460e+03,3.672757e+02
2.749031e+03,3.767231e+02
2.760602e+03,3.677729e+02
2.772173e+03,3.622850e+02
2.783744e+03,3.692685e+02
2.795314e+03,3.666074e+02
2.806885e+03,3.676999e+02
2.818456e+03,3.721073e+02
2.830027e+03,3.499847e+02
2.841598e+03,3.625718e+02
2.853168e+03,3.658676e+02
2.864739e+03,3.820560e+02
2.876310e+03,3.827138e+02
2.887881e+03,4.000991e+02
2.899452e+03,4.207343e+02
2.911022e+03,3.808575e+02
2.922593e+03,3.753112e+02
2.934164e+03,3.778802e+02
2.945735e+03,3.442591e+02
2.957306e+03,4.068697e+02
2.968876e+03,3.401982e+02
2.980447e+03,3.203099e+02
2.992018e+03,3.269017e+02
3.003589e+03,3.246120e+02
3.015160e+03,3.089949e+02
3.026730e+03,3.132661e+02
3.038301e+03,3.324564e+02
3.049872e+03,3.204484e+02
3.061443e+03,3.259969e+02
3.073014e+03,3.036090e+02
3.084584e+03,3.199305e+02
3.096155e+03,3.081727e+02
3.107726e+03,3.123769e+02
3.119297e+03,3.169248e+02
3.130868e+03,3.178493e+02
3.142438e+03,3.375778e+02
3.154009e+03,3.210814e+02
3.165580e+03,3.274994e+02
3.177151e+03,3.071057e+02
3.188722e+03,3.013808e+02
3.200292e+03,3.148372e+02
3.211863e+03,0.000000e+00
3.223434e+03,0.000000e+00
3.235005e+03,0.000000e+00
3.246576e+03,0.000000e+00
3.258146e+03,0.000000e+00
3.269717e+03,0.000000e+00
3.281288e+03,0.000000e+00
3.292859e+03,0.000000e+00
3.304430e+03,0.000000e+00
3.316000e+03,0.000000e+00
3.327571e+03,0.000000e+00
3.339142e+03,0.000000e+00
3.350713e+03,0.000000e+00
3.362284e+03,0.000000e+00
3.373854e+03,0.000000e+00
3.385425e+03,0.000000e+00
3.396996e+03,0.000000e+00
3.408567e+03,0.000000e+00
3.420138e+03,0.000000e+00
3.431708e+03,0.000000e+00
3.443279e+03,0.000000e+00
3.454850e+03,0.000000e+00
3.466421e+03,0.000000e+00
3.477992e+03,0.000000e+00
3.489563e+03,0.000000e+00
3.500169e+03,0.000000e+00

File: blue fibre3.CSV
9.931763e+01,0.000000e+00
1.108884e+02,0.000000e+00
1.224592e+02,0.000000e+00
1.340300e+02,0.000000e+00
1.456008e+02,0.000000e+00
1.571716e+02,0.000000e+00
1.687424e+02,0.000000e+00
1.803132e+02,0.000000e+00
1.918840e+02,0.000000e+00
2.034548e+02,1.051899e+04
2.150256e+02,1.057905e+04
2.265964e+02,1.068651e+04
2.381673e+02,1.083713e+04
2.497381e+02,1.092278e+04
2.613088e+02,1.101875e+04
2.728796e+02,1.114345e+04
2.844504e+02,1.128443e+04
2.960212e+02,1.138987e+04
3.075920e+02,1.148845e+04
3.191628e+02,1.160775e+04
3.307336e+02,1.175910e+04
3.423044e+02,1.188976e+04
3.538752e+02,1.203829e+04
3.654461e+02,1.215099e+04
3.770169e+02,1.231110e+04
3.885877e+02,1.246675e+04
4.001585e+02,1.259455e+04
4.117293e+02,1.274362e+04
4.233001e+02,1.288550e+04
4.348709e+02,1.304495e+04
4.464417e+02,1.321596e+04
4.580125e+02,1.333318e+04
4.695833e+02,1.347341e+04
4.811541e+02,1.360224e+04
4.927249e+02,1.374474e+04
5.042957e+02,1.387491e+04
5.158665e+02,1.399692e+04
5.274373e+02,1.410203e+04
5.390081e+02,1.416972e+04
5.505789e+02,1.428556e+04
5.621497e+02,1.439837e+04
5.737205e+02,1.446632e+04
5.852913e+02,1.457575e+04
5.968621e+02,1.471280e+04
6.084329e+02,1.480358e+04
6.200037e+02,1.484330e+04
6.315745e+02,1.490827e+04
6.431453e+02,1.500741e+04
6.547161e+02,1.510578e+04
6.662869e+02,1.514584e+04
6.778577e+02,1.514799e+04
6.894285e+02,1.519395e+04
7.009993e+02,1.527256e+04
7.125701e+02,1.527661e+04
7.241409e+02,1.527022e+04
7.357117e+02,1.526974e+04
7.472825e+02,1.529838e+04
7.588533e+02,1.525349e+04
7.704241e+02,1.520913e+04
7.819949e+02,1.520059e+04
7.935657e+02,1.517592e+04
8.051365e+02,1.511077e+04
8.167073e+02,1.508295e+04
8.282781e+02,1.504160e+04
8.398489e+02,1.497732e+04
8.514197e+02,1.485258e+04
8.629905e+02,1.478478e+04
8.745613e+02,1.470254e+04
8.861321e+02,1.467136e+04
8.977029e+02,1.454933e+04
9.092737e+02,1.445538e+04
9.208445e+02,1.435555e+04
9.324153e+02,1.430228e+04
9.439861e+02,1.419758e+04
9.555569e+02,1.405309e+04
9.671277e+02,1.394241e+04
9.786985e+02,1.383075e+04
9.902693e+02,1.367490e+04
1.001840e+03,1.353509e+04
1.013411e+03,1.346450e+04
1.024982e+03,1.337917e+04
1.036552e+03,1.323313e+04
1.048123e+03,1.311727e+04
1.059694e+03,1.305441e+04
1.071265e+03,1.300379e+04
1.082836e+03,1.290117e+04
1.094406e+03,1.274686e+04
1.105977e+03,1.268010e+04
1.117548e+03,1.262516e+04
1.129119e+03,1.251101e+04
1.140690e+03,1.242159e+04
1.152261e+03,1.239111e+04
1.163831e+03,1.232199e+04
1.175402e+03,1.221769e+04
1.186973e+03,1.215562e+04
1.198544e+03,1.215958e+04
1.210115e+03,1.211081e+04
1.221685e+03,1.206943e+04
1.233256e+03,1.204628e+04
1.244827e+03,1.207817e+04
1.256398e+03,1.208695e+04
1.267969e+03,1.206690e+04
1.279539e+03,1.209122e+04
1.291110e+03,1.213679e+04
1.302681e+03,1.218424e+04
1.314252e+03,1.220847e+04
1.325823e+03,1.225572e+04
1.337393e+03,1.235253e+04
1.348964e+03,1.241398e+04
1.360535e+03,1.246655e+04
1.372106e+03,1.257025e+04
1.383677e+03,1.270507e+04
1.395247e+03,1.281187e+04
1.406818e+03,1.293171e+04
1.418389e+03,1.311750e+04
1.429960e+03,1.328471e+04
1.441531e+03,1.341893e+04
1.453101e+03,1.357500e+04
1.464672e+03,1.378792e+04
1.476243e+03,1.403125e+04
1.487814e+03,1.425464e+04
1.499385e+03,1.445623e+04
1.510955e+03,1.473543e+04
1.522526e+03,1.504684e+04
1.534097e+03,1.532431e+04
1.545668e+03,1.558818e+04
1.557239e+03,1.584432e+04
1.568809e+03,1.604961e+04
1.580380e+03,1.624252e+04
1.591951e+03,1.627475e+04
1.603522e+03,1.632795e+04
1.615093e+03,1.640808e+04
1.626663e+03,1.636464e+04
1.638234e+03,1.624599e+04
1.649805e+03,1.627680e+04
1.661376e+03,1.617119e+04
1.672947e+03,1.594740e+04
1.684517e+03,1.586493e+04
1.696088e+03,1.575644e+04
1.707659e+03,1.568130e+04
1.719230e+03,1.554417e+04
1.730801e+03,1.544566e+04
1.742371e+03,1.537965e+04
1.753942e+03,1.521917e+04
1.765513e+03,1.511943e+04
1.777084e+03,1.498087e+04
1.788655e+03,1.491104e+04
1.800225e+03,1.479658e+04
1.811796e+03,1.473318e+04
1.823367e+03,1.455286e+04
1.834938e+03,1.451850e+04
1.846509e+03,1.440511e+04
1.858079e+03,1.426899e+04
1.869650e+03,1.415621e+04
1.881221e+03,1.403815e+04
1.892792e+03,1.393826e+04
1.904363e+03,1.378013e+04
1.915933e+03,1.363057e+04
1.927504e+03,1.360284e+04
1.939075e+03,1.348273e+04
1.950646e+03,1.335798e+04
1.962217e+03,1.326769e+04
1.973787e+03,1.309652e+04
1.985358e+03,1.303115e+04
1.996929e+03,1.288120e+04
2.008500e+03,1.277755e+04
2.020071e+03,1.266130e+04
2.031641e+03,1.256083e+04
2.043212e+03,1.240255e+04
2.054783e+03,1.234140e+04
2.066354e+03,1.223656e+04
2.077925e+03,1.211463e+04
2.089496e+03,1.199681e+04
2.101066e+03,1.184331e+04
2.112637e+03,1.172916e+04
2.124208e+03,1.172152e+04
2.135779e+03,1.157387e+04
2.147350e+03,1.139777e+04
2.158920e+03,1.132527e+04
2.170491e+03,1.127146e+04
2.182062e+03,1.107360e+04
2.193633e+03,1.096563e+04
2.205204e+03,1.090257e+04
2.216774e+03,1.081451e+04
2.228345e+03,1.063499e+04
2.239916e+03,1.054473e+04
2.251487e+03,1.044110e+04
2.263058e+03,1.031984e+04
2.274628e+03,1.020859e+04
2.286199e+03,1.003828e+04
2.297770e+03,1.008833e+04
2.309341e+03,9.902134e+03
2.320912e+03,9.802653e+03
2.332482e+03,9.661851e+03
2.344053e+03,9.609339e+03
2.355624e+03,9.525849e+03
2.367195e+03,9.342402e+03
2.378766e+03,9.322771e+03
2.390336e+03,9.177473e+03
2.401907e+03,9.056939e+03
2.413478e+03,8.981104e+03
2.425049e+03,8.915104e+03
2.436620e+03,8.770689e+03
2.448190e+03,8.647040e+03
2.459761e+03,8.604202e+03
2.471332e+03,8.519291e+03
2.482903e+03,8.416674e+03
2.494474e+03,8.317315e+03
2.506044e+03,8.259620e+03
2.517615e+03,8.222505e+03
2.529186e+03,8.140401e+03
2.540757e+03,8.013340e+03
2.552328e+03,7.897750e+03
2.563898e+03,7.868456e+03
2.575469e+03,7.793943e+03
2.587040e+03,7.710461e+03
2.598611e+03,7.668154e+03
2.610182e+03,7.553151e+03
2.621752e+03,7.453435e+03
2.633323e+03,7.424521e+03
2.644894e+03,7.302439e+03
2.656465e+03,7.298526e+03
2.668036e+03,7.189703e+03
2.679606e+03,7.163256e+03
2.691177e+03,7.109577e+03
2.702748e+03,7.015709e+03
2.714319e+03,6.924991e+03
2.725890e+03,6.850774e+03
2.737460e+03,6.830183e+03
2.749031e+03,6.768406e+03
2.760602e+03,6.789913e+03
2.772173e+03,6.642920e+03
2.783744e+03,6.600422e+03
2.795314e+03,6.536404e+03
2.806885e+03,6.457481e+03
2.818456e+03,6.425225e+03
2.830027e+03,6.348094e+03
2.841598e+03,6.275878e+03
2.853168e+03,6.300625e+03
2.864739e+03,6.279505e+03
2.876310e+03,6.133084e+03
2.887881e+03,6.162628e+03
2.899452e+03,6.147299e+03
2.911022e+03,6.033923e+03
2.922593e+03,5.998530e+03
2.934164e+03,5.912768e+03
2.945735e+03,5.948425e+03
2.957306e+03,5.935050e+03
2.968876e+03,5.794977e+03
2.980447e+03,5.777630e+03
2.992018e+03,5.767506e+03
3.003589e+03,5.677056e+03
3.015160e+03,5.675338e+03
3.026730e+03,5.651576e+03
3.038301e+03,5.580614e+03
3.049872e+03,5.527089e+03
3.061443e+03,5.480922e+03
3.073014e+03,5.421479e+03
3.084584e+03,5.468297e+03
3.096155e+03,5.440205e+03
3.107726e+03,5.413421e+03
3.119297e+03,5.406897e+03
3.130868e+03,5.286946e+03
3.142438e+03,5.300310e+03
3.154009e+03,5.300762e+03
3.165580e+03,5.306267e+03
3.177151e+03,5.266528e+03
3.188722e+03,5.279583e+03
3.200292e+03,5.208814e+03
3.211863e+03,0.000000e+00
3.223434e+03,0.000000e+00
3.235005e+03,0.000000e+00
3.246576e+03,0.000000e+00
3.258146e+03,0.000000e+00
3.269717e+03,0.000000e+00
3.281288e+03,0.000000e+00
3.292859e+03,0.000000e+00
3.304430e+03,0.000000e+00
3.316000e+03,0.000000e+00
3.327571e+03,0.000000e+00
3.339142e+03,0.000000e+00
3.350713e+03,0.000000e+00
3.362284e+03,0.000000e+00
3.373854e+03,0.000000e+00
3.385425e+03,0.000000e+00
3.396996e+03,0.000000e+00
3.408567e+03,0.000000e+00
3.420138e+03,0.000000e+00
3.431708e+03,0.000000e+00
3.443279e+03,0.000000e+00
3.454850e+03,0.000000e+00
3.466421e+03,0.000000e+00
3.477992e+03,0.000000e+00
3.489563e+03,0.000000e+00
3.500169e+03,0.000000e+00

File: blue frag1.CSV
9.931763e+01,0.000000e+00
1.108884e+02,0.000000e+00
1.224592e+02,0.000000e+00
1.340300e+02,0.000000e+00
1.456008e+02,0.000000e+00
1.571716e+02,0.000000e+00
1.687424e+02,0.000000e+00
1.803132e+02,0.000000e+00
1.918840e+02,0.000000e+00
2.034548e+02,1.578704e+03
2.150256e+02,1.575039e+03
2.265964e+02,1.571657e+03
2.381673e+02,1.569674e+03
2.497381e+02,1.598971e+03
2.613088e+02,1.588455e+03
2.728796e+02,1.562742e+03
2.844504e+02,1.589309e+03
2.960212e+02,1.555938e+03
3.075920e+02,1.549691e+03
3.191628e+02,1.550194e+03
3.307336e+02,1.558648e+03
3.423044e+02,1.547098e+03
3.538752e+02,1.539356e+03
3.654461e+02,1.517970e+03
3.770169e+02,1.530264e+03
3.885877e+02,1.531035e+03
4.001585e+02,1.513504e+03
4.117293e+02,1.516722e+03
4.233001e+02,1.515285e+03
4.348709e+02,1.507721e+03
4.464417e+02,1.500776e+03
4.580125e+02,1.497898e+03
4.695833e+02,1.495128e+03
4.811541e+02,1.506230e+03
4.927249e+02,1.499545e+03
5.042957e+02,1.469881e+03
5.158665e+02,1.474345e+03
5.274373e+02,1.456833e+03
5.390081e+02,1.462525e+03
5.505789e+02,1.452395e+03
5.621497e+02,1.451128e+03
5.737205e+02,1.454821e+03
5.852913e+02,1.474497e+03
5.968621e+02,1.448516e+03
6.084329e+02,1.437004e+03
6.200037e+02,1.431089e+03
6.315745e+02,1.416764e+03
6.431453e+02,1.417241e+03
6.547161e+02,1.420401e+03
6.662869e+02,1.413212e+03
6.778577e+02,1.643839e+03
6.894285e+02,1.470705e+03
7.009993e+02,1.404845e+03
7.125701e+02,1.414187e+03
7.241409e+02,1.385651e+03
7.357117e+02,1.394315e+03
7.472825e+02,1.745364e+03
7.588533e+02,1.374107e+03
7.704241e+02,1.384126e+03
7.819949e+02,1.380541e+03
7.935657e+02,1.361284e+03
8.051365e+02,1.344131e+03
8.167073e+02,1.335409e+03
8.282781e+02,1.356436e+03
8.398489e+02,1.368178e+03
8.514197e+02,1.341276e+03
8.629905e+02,1.330918e+03
8.745613e+02,1.326070e+03
8.861321e+02,1.321944e+03
8.977029e+02,1.312922e+03
9.092737e+02,1.302380e+03
9.208445e+02,1.301989e+03
9.324153e+02,1.306824e+03
9.439861e+02,1.305381e+03
9.555569e+02,1.302946e+03
9.671277e+02,1.295719e+03
9.786985e+02,1.292210e+03
9.902693e+02,1.287769e+03
1.001840e+03,1.304833e+03
1.013411e+03,1.285648e+03
1.024982e+03,1.281854e+03
1.036552e+03,1.278727e+03
1.048123e+03,1.273741e+03
1.059694e+03,1.302189e+03
1.071265e+03,1.282979e+03
1.082836e+03,1.289239e+03
1.094406e+03,1.280225e+03
1.105977e+03,1.305900e+03
1.117548e+03,1.286162e+03
1.129119e+03,1.307706e+03
1.140690e+03,1.487418e+03
1.152261e+03,1.298570e+03
1.163831e+03,1.289717e+03
1.175402e+03,1.276935e+03
1.186973e+03,1.303281e+03
1.198544e+03,1.292875e+03
1.210115e+03,1.296541e+03
1.221685e+03,1.281920e+03
1.233256e+03,1.260713e+03
1.244827e+03,1.267952e+03
1.256398e+03,1.244011e+03
1.267969e+03,1.262825e+03
1.279539e+03,1.262745e+03
1.291110e+03,1.297326e+03
1.302681e+03,1.319083e+03
1.314252e+03,1.287532e+03
1.325823e+03,1.324541e+03
1.337393e+03,1.583961e+03
1.348964e+03,1.306192e+03
1.360535e+03,1.282749e+03
1.372106e+03,1.262076e+03
1.383677e+03,1.240220e+03
1.395247e+03,1.230713e+03
1.406818e+03,1.234378e+03
1.418389e+03,1.243000e+03
1.429960e+03,1.271486e+03
1.441531e+03,1.276055e+03
1.453101e+03,1.328795e+03
1.464672e+03,1.241573e+03
1.476243e+03,1.228193e+03
1.487814e+03,1.223140e+03
1.499385e+03,1.221088e+03
1.510955e+03,1.235680e+03
1.522526e+03,1.836133e+03
1.534097e+03,1.377697e+03
1.545668e+03,1.219300e+03
1.557239e+03,1.194314e+03
1.568809e+03,1.181404e+03
1.580380e+03,1.167454e+03
1.591951e+03,1.176381e+03
1.603522e+03,1.157516e+03
1.615093e+03,1.151673e+03
1.626663e+03,1.138645e+03
1.638234e+03,1.114233e+03
1.649805e+03,1.107802e+03
1.661376e+03,1.097344e+03
1.672947e+03,1.081847e+03
1.684517e+03,1.092848e+03
1.696088e+03,1.069593e+03
1.707659e+03,1.062679e+03
1.719230e+03,1.066437e+03
1.730801e+03,1.048001e+03
1.742371e+03,1.032898e+03
1.753942e+03,1.026935e+03
1.765513e+03,1.025843e+03
1.777084e+03,1.021828e+03
1.788655e+03,1.012005e+03
1.800225e+03,1.008059e+03
1.811796e+03,1.000203e+03
1.823367e+03,9.846929e+02
1.834938e+03,9.792859e+02
1.846509e+03,9.725056e+02
1.858079e+03,9.724703e+02
1.869650e+03,9.511134e+02
1.881221e+03,9.378757e+02
1.892792e+03,9.464535e+02
1.904363e+03,9.245482e+02
1.915933e+03,9.244352e+02
1.927504e+03,9.285054e+02
1.939075e+03,9.112280e+02
1.950646e+03,9.109040e+02
1.962217e+03,9.050305e+02
1.973787e+03,8.818450e+02
1.985358e+03,8.809657e+02
1.996929e+03,8.861251e+02
2.008500e+03,8.659223e+02
2.020071e+03,8.568832e+02
2.031641e+03,8.546300e+02
2.043212e+03,8.337194e+02
2.054783e+03,8.330842e+02
2.066354e+03,8.388583e+02
2.077925e+03,8.226815e+02
2.089496e+03,8.235932e+02
2.101066e+03,8.071666e+02
2.112637e+03,7.959456e+02
2.124208e+03,7.910402e+02
2.135779e+03,8.027993e+02
2.147350e+03,7.694283e+02
2.158920e+03,7.728525e+02
2.170491e+03,7.788091e+02
2.182062e+03,7.580473e+02
2.193633e+03,7.405715e+02
2.205204e+03,7.592950e+02
2.216774e+03,7.441779e+02
2.228345e+03,7.274359e+02
2.239916e+03,7.233179e+02
2.251487e+03,7.202467e+02
2.263058e+03,7.260404e+02
2.274628e+03,7.190575e+02
2.286199e+03,7.047917e+02
2.297770e+03,7.008529e+02
2.309341e+03,6.881031e+02
2.320912e+03,6.842938e+02
2.332482e+03,6.836137e+02
2.344053e+03,6.686269e+02
2.355624e+03,6.696678e+02
2.367195e+03,6.455852e+02
2.378766e+03,6.618244e+02
2.390336e+03,6.557996e+02
2.401907e+03,6.508293e+02
2.413478e+03,6.435943e+02
2.425049e+03,6.389266e+02
2.436620e+03,6.349170e+02
2.448190e+03,6.355331e+02
2.459761e+03,6.244965e+02
2.471332e+03,6.129266e+02
2.482903e+03,6.221343e+02
2.494474e+03,6.066739e+02
2.506044e+03,6.056863e+02
2.517615e+03,6.070446e+02
2.529186e+03,6.043111e+02
2.540757e+03,5.902767e+02
2.552328e+03,5.996884e+02
2.563898e+03,5.891582e+02
2.575469e+03,5.948262e+02
2.587040e+03,5.791608e+02
2.598611e+03,5.823799e+02
2.610182e+03,5.779660e+02
2.621752e+03,5.650323e+02
2.633323e+03,5.823352e+02
2.644894e+03,5.694625e+02
2.656465e+03,5.650728e+02
2.668036e+03,5.611923e+02
2.679606e+03,5.617347e+02
2.691177e+03,5.480684e+02
2.702748e+03,5.557098e+02
2.714319e+03,5.613035e+02
2.725890e+03,5.546939e+02
2.737460e+03,5.451112e+02
2.749031e+03,5.545685e+02
2.760602e+03,5.522600e+02
2.772173e+03,5.324137e+02
2.783744e+03,5.354858e+02
2.795314e+03,5.258903e+02
2.806885e+03,5.434901e+02
2.818456e+03,5.422737e+02
2.830027e+03,5.512188e+02
2.841598e+03,5.760367e+02
2.853168e+03,6.100752e+02
2.864739e+03,5.802178e+02
2.876310e+03,6.283862e+02
2.887881e+03,6.051679e+02
2.899452e+03,6.033994e+02
2.911022e+03,5.876952e+02
2.922593e+03,5.780927e+02
2.934164e+03,5.664485e+02
2.945735e+03,5.603192e+02
2.957306e+03,5.658738e+02
2.968876e+03,5.452205e+02
2.980447e+03,5.430254e+02
2.992018e+03,5.464056e+02
3.003589e+03,5.655062e+02
3.015160e+03,5.560310e+02
3.026730e+03,5.643359e+02
3.038301e+03,5.547224e+02
3.049872e+03,5.636036e+02
3.061443e+03,5.813716e+02
3.073014e+03,5.632224e+02
3.084584e+03,5.596149e+02
3.096155e+03,6.067608e+02
3.107726e+03,6.096063e+02
3.119297e+03,6.217995e+02
3.130868e+03,6.225945e+02
3.142438e+03,6.211309e+02
3.154009e+03,6.352216e+02
3.165580e+03,6.305105e+02
3.177151e+03,6.152247e+02
3.188722e+03,6.488878e+02
3.200292e+03,6.400328e+02
3.211863e+03,0.000000e+00
3.223434e+03,0.000000e+00
3.235005e+03,0.000000e+00
3.246576e+03,0.000000e+00
3.258146e+03,0.000000e+00
3.269717e+03,0.000000e+00
3.281288e+03,0.000000e+00
3.292859e+03,0.000000e+00
3.304430e+03,0.000000e+00
3.316000e+03,0.000000e+00
3.327571e+03,0.000000e+00
3.339142e+03,0.000000e+00
3.350713e+03,0.000000e+00
3.362284e+03,0.000000e+00
3.373854e+03,0.000000e+00
3.385425e+03,0.000000e+00
3.396996e+03,0.000000e+00
3.408567e+03,0.000000e+00
3.420138e+03,0.000000e+00
3.431708e+03,0.000000e+00
3.443279e+03,0.000000e+00
3.454850e+03,0.000000e+00
3.466421e+03,0.000000e+00
3.477992e+03,0.000000e+00
3.489563e+03,0.000000e+00
3.500169e+03,0.000000e+00