Folder: Taff_Bargoed_microplastics_data/RAMAN_data/12022024_r2 (part 4)

File: blue fibre7.CSV
9.931763e+01,0.000000e+00
1.108884e+02,0.000000e+00
1.224592e+02,0.000000e+00
1.340300e+02,0.000000e+00
1.456008e+02,0.000000e+00
1.571716e+02,0.000000e+00
1.687424e+02,0.000000e+00
1.803132e+02,0.000000e+00
1.918840e+02,0.000000e+00
2.034548e+02,9.738324e+03
2.150256e+02,9.793754e+03
2.265964e+02,9.891493e+03
2.381673e+02,1.003375e+04
2.497381e+02,1.010033e+04
2.613088e+02,1.017727e+04
2.728796e+02,1.028370e+04
2.844504e+02,1.042920e+04
2.960212e+02,1.051551e+04
3.075920e+02,1.060675e+04
3.191628e+02,1.071286e+04
3.307336e+02,1.079650e+04
3.423044e+02,1.086400e+04
3.538752e+02,1.098529e+04
3.654461e+02,1.103091e+04
3.770169e+02,1.114954e+04
3.885877e+02,1.124039e+04
4.001585e+02,1.126475e+04
4.117293e+02,1.136216e+04
4.233001e+02,1.143759e+04
4.348709e+02,1.152061e+04
4.464417e+02,1.154146e+04
4.580125e+02,1.160092e+04
4.695833e+02,1.163291e+04
4.811541e+02,1.161785e+04
4.927249e+02,1.165470e+04
5.042957e+02,1.166296e+04
5.158665e+02,1.171652e+04
5.274373e+02,1.171739e+04
5.390081e+02,1.168202e+04
5.505789e+02,1.173725e+04
5.621497e+02,1.175537e+04
5.737205e+02,1.173883e+04
5.852913e+02,1.174481e+04
5.968621e+02,1.180592e+04
6.084329e+02,1.179042e+04
6.200037e+02,1.181643e+04
6.315745e+02,1.176725e+04
6.431453e+02,1.171525e+04
6.547161e+02,1.174488e+04
6.662869e+02,1.171227e+04
6.778577e+02,1.168654e+04
6.894285e+02,1.167683e+04
7.009993e+02,1.165007e+04
7.125701e+02,1.164873e+04
7.241409e+02,1.162901e+04
7.357117e+02,1.152453e+04
7.472825e+02,1.154815e+04
7.588533e+02,1.151296e+04
7.704241e+02,1.138767e+04
7.819949e+02,1.143595e+04
7.935657e+02,1.140820e+04
8.051365e+02,1.136906e+04
8.167073e+02,1.129910e+04
8.282781e+02,1.130917e+04
8.398489e+02,1.130466e+04
8.514197e+02,1.126165e+04
8.629905e+02,1.118169e+04
8.745613e+02,1.115714e+04
8.861321e+02,1.116021e+04
8.977029e+02,1.109205e+04
9.092737e+02,1.106253e+04
9.208445e+02,1.098088e+04
9.324153e+02,1.094855e+04
9.439861e+02,1.092510e+04
9.555569e+02,1.086158e+04
9.671277e+02,1.081293e+04
9.786985e+02,1.082403e+04
9.902693e+02,1.072981e+04
1.001840e+03,1.068743e+04
1.013411e+03,1.068367e+04
1.024982e+03,1.065771e+04
1.036552e+03,1.064462e+04
1.048123e+03,1.059508e+04
1.059694e+03,1.056180e+04
1.071265e+03,1.055135e+04
1.082836e+03,1.054821e+04
1.094406e+03,1.047307e+04
1.105977e+03,1.046269e+04
1.117548e+03,1.044840e+04
1.129119e+03,1.041339e+04
1.140690e+03,1.039576e+04
1.152261e+03,1.043977e+04
1.163831e+03,1.035411e+04
1.175402e+03,1.032893e+04
1.186973e+03,1.028887e+04
1.198544e+03,1.030763e+04
1.210115e+03,1.032634e+04
1.221685e+03,1.030050e+04
1.233256e+03,1.026073e+04
1.244827e+03,1.030240e+04
1.256398e+03,1.027983e+04
1.267969e+03,1.024474e+04
1.279539e+03,1.028702e+04
1.291110e+03,1.027353e+04
1.302681e+03,1.029559e+04
1.314252e+03,1.023999e+04
1.325823e+03,1.022820e+04
1.337393e+03,1.030251e+04
1.348964e+03,1.029782e+04
1.360535e+03,1.029328e+04
1.372106e+03,1.039459e+04
1.383677e+03,1.042298e+04
1.395247e+03,1.043694e+04
1.406818e+03,1.033989e+04
1.418389e+03,1.039531e+04
1.429960e+03,1.043362e+04
1.441531e+03,1.040233e+04
1.453101e+03,1.040707e+04
1.464672e+03,1.040403e+04
1.476243e+03,1.044104e+04
1.487814e+03,1.044428e+04
1.499385e+03,1.042792e+04
1.510955e+03,1.047925e+04
1.522526e+03,1.052831e+04
1.534097e+03,1.048458e+04
1.545668e+03,1.047877e+04
1.557239e+03,1.050757e+04
1.568809e+03,1.057381e+04
1.580380e+03,1.055296e+04
1.591951e+03,1.051739e+04
1.603522e+03,1.054334e+04
1.615093e+03,1.056319e+04
1.626663e+03,1.057978e+04
1.638234e+03,1.054968e+04
1.649805e+03,1.051233e+04
1.661376e+03,1.053366e+04
1.672947e+03,1.049469e+04
1.684517e+03,1.051067e+04
1.696088e+03,1.056298e+04
1.707659e+03,1.050603e+04
1.719230e+03,1.050574e+04
1.730801e+03,1.053503e+04
1.742371e+03,1.052174e+04
1.753942e+03,1.047606e+04
1.765513e+03,1.046095e+04
1.777084e+03,1.047464e+04
1.788655e+03,1.043275e+04
1.800225e+03,1.037500e+04
1.811796e+03,1.038812e+04
1.823367e+03,1.039048e+04
1.834938e+03,1.038188e+04
1.846509e+03,1.035184e+04
1.858079e+03,1.031474e+04
1.869650e+03,1.027936e+04
1.881221e+03,1.030146e+04
1.892792e+03,1.023945e+04
1.904363e+03,1.020101e+04
1.915933e+03,1.016733e+04
1.927504e+03,1.021675e+04
1.939075e+03,1.008725e+04
1.950646e+03,1.007242e+04
1.962217e+03,1.005556e+04
1.973787e+03,1.004458e+04
1.985358e+03,9.995415e+03
1.996929e+03,9.986485e+03
2.008500e+03,9.862819e+03
2.020071e+03,9.833824e+03
2.031641e+03,9.832721e+03
2.043212e+03,9.725341e+03
2.054783e+03,9.671442e+03
2.066354e+03,9.722499e+03
2.077925e+03,9.629025e+03
2.089496e+03,9.583434e+03
2.101066e+03,9.529552e+03
2.112637e+03,9.456941e+03
2.124208e+03,9.467306e+03
2.135779e+03,9.370359e+03
2.147350e+03,9.272844e+03
2.158920e+03,9.311937e+03
2.170491e+03,9.273706e+03
2.182062e+03,9.170679e+03
2.193633e+03,9.119812e+03
2.205204e+03,9.139100e+03
2.216774e+03,9.049624e+03
2.228345e+03,8.901843e+03
2.239916e+03,8.903332e+03
2.251487e+03,8.883529e+03
2.263058e+03,8.847281e+03
2.274628e+03,8.701269e+03
2.286199e+03,8.655920e+03
2.297770e+03,8.703188e+03
2.309341e+03,8.593228e+03
2.320912e+03,8.569456e+03
2.332482e+03,8.518007e+03
2.344053e+03,8.473622e+03
2.355624e+03,8.419087e+03
2.367195e+03,8.308319e+03
2.378766e+03,8.308463e+03
2.390336e+03,8.216524e+03
2.401907e+03,8.183269e+03
2.413478e+03,8.115112e+03
2.425049e+03,8.096741e+03
2.436620e+03,8.042407e+03
2.448190e+03,7.943034e+03
2.459761e+03,7.872292e+03
2.471332e+03,7.851561e+03
2.482903e+03,7.838893e+03
2.494474e+03,7.770993e+03
2.506044e+03,7.688929e+03
2.517615e+03,7.688607e+03
2.529186e+03,7.635608e+03
2.540757e+03,7.500642e+03
2.552328e+03,7.561264e+03
2.563898e+03,7.436709e+03
2.575469e+03,7.414028e+03
2.587040e+03,7.348010e+03
2.598611e+03,7.309314e+03
2.610182e+03,7.240678e+03
2.621752e+03,7.221727e+03
2.633323e+03,7.161628e+03
2.644894e+03,7.155920e+03
2.656465e+03,7.089013e+03
2.668036e+03,7.019461e+03
2.679606e+03,6.959821e+03
2.691177e+03,6.955864e+03
2.702748e+03,6.907231e+03
2.714319e+03,6.793127e+03
2.725890e+03,6.738857e+03
2.737460e+03,6.719464e+03
2.749031e+03,6.671080e+03
2.760602e+03,6.594793e+03
2.772173e+03,6.563732e+03
2.783744e+03,6.487155e+03
2.795314e+03,6.451841e+03
2.806885e+03,6.409916e+03
2.818456e+03,6.336078e+03
2.830027e+03,6.347397e+03
2.841598e+03,6.270343e+03
2.853168e+03,6.269641e+03
2.864739e+03,6.161172e+03
2.876310e+03,6.130038e+03
2.887881e+03,6.144881e+03
2.899452e+03,6.102889e+03
2.911022e+03,5.998464e+03
2.922593e+03,5.996887e+03
2.934164e+03,5.923444e+03
2.945735e+03,5.926206e+03
2.957306e+03,5.888369e+03
2.968876e+03,5.808750e+03
2.980447e+03,5.778604e+03
2.992018e+03,5.708732e+03
3.003589e+03,5.703276e+03
3.015160e+03,5.650027e+03
3.026730e+03,5.667742e+03
3.038301e+03,5.589609e+03
3.049872e+03,5.518024e+03
3.061443e+03,5.612544e+03
3.073014e+03,5.506983e+03
3.084584e+03,5.507453e+03
3.096155e+03,5.483823e+03
3.107726e+03,5.463909e+03
3.119297e+03,5.374734e+03
3.130868e+03,5.449044e+03
3.142438e+03,5.366470e+03
3.154009e+03,5.386826e+03
3.165580e+03,5.282177e+03
3.177151e+03,5.343391e+03
3.188722e+03,5.323439e+03
3.200292e+03,5.327438e+03
3.211863e+03,0.000000e+00
3.223434e+03,0.000000e+00
3.235005e+03,0.000000e+00
3.246576e+03,0.000000e+00
3.258146e+03,0.000000e+00
3.269717e+03,0.000000e+00
3.281288e+03,0.000000e+00
3.292859e+03,0.000000e+00
3.304430e+03,0.000000e+00
3.316000e+03,0.000000e+00
3.327571e+03,0.000000e+00
3.339142e+03,0.000000e+00
3.350713e+03,0.000000e+00
3.362284e+03,0.000000e+00
3.373854e+03,0.000000e+00
3.385425e+03,0.000000e+00
3.396996e+03,0.000000e+00
3.408567e+03,0.000000e+00
3.420138e+03,0.000000e+00
3.431708e+03,0.000000e+00
3.443279e+03,0.000000e+00
3.454850e+03,0.000000e+00
3.466421e+03,0.000000e+00
3.477992e+03,0.000000e+00
3.489563e+03,0.000000e+00
3.500169e+03,0.000000e+00

File: blue frag1.CSV
9.931763e+01,0.000000e+00
1.108884e+02,0.000000e+00
1.224592e+02,0.000000e+00
1.340300e+02,0.000000e+00
1.456008e+02,0.000000e+00
1.571716e+02,0.000000e+00
1.687424e+02,0.000000e+00
1.803132e+02,0.000000e+00
1.918840e+02,0.000000e+00
2.034548e+02,2.290293e+03
2.150256e+02,2.278257e+03
2.265964e+02,2.277187e+03
2.381673e+02,2.272539e+03
2.497381e+02,2.292510e+03
2.613088e+02,2.354102e+03
2.728796e+02,2.272276e+03
2.844504e+02,2.288314e+03
2.960212e+02,2.257934e+03
3.075920e+02,2.258600e+03
3.191628e+02,2.271270e+03
3.307336e+02,2.280722e+03
3.423044e+02,2.283728e+03
3.538752e+02,2.273846e+03
3.654461e+02,2.268478e+03
3.770169e+02,2.289613e+03
3.885877e+02,2.286341e+03
4.001585e+02,2.273790e+03
4.117293e+02,2.268983e+03
4.233001e+02,2.298707e+03
4.348709e+02,2.279392e+03
4.464417e+02,2.275890e+03
4.580125e+02,2.279046e+03
4.695833e+02,2.279091e+03
4.811541e+02,2.534694e+03
4.927249e+02,2.330732e+03
5.042957e+02,2.316313e+03
5.158665e+02,2.329009e+03
5.274373e+02,2.319665e+03
5.390081e+02,2.329947e+03
5.505789e+02,2.349982e+03
5.621497e+02,2.373220e+03
5.737205e+02,2.373458e+03
5.852913e+02,2.421779e+03
5.968621e+02,2.443166e+03
6.084329e+02,2.421239e+03
6.200037e+02,2.412027e+03
6.315745e+02,2.442640e+03
6.431453e+02,2.459580e+03
6.547161e+02,2.472527e+03
6.662869e+02,2.490403e+03
6.778577e+02,3.052831e+03
6.894285e+02,2.565196e+03
7.009993e+02,2.592489e+03
7.125701e+02,2.555433e+03
7.241409e+02,2.567872e+03
7.357117e+02,2.583707e+03
7.472825e+02,3.189429e+03
7.588533e+02,2.609462e+03
7.704241e+02,2.646092e+03
7.819949e+02,2.700265e+03
7.935657e+02,2.637813e+03
8.051365e+02,2.660928e+03
8.167073e+02,2.664665e+03
8.282781e+02,2.739354e+03
8.398489e+02,2.747552e+03
8.514197e+02,2.776496e+03
8.629905e+02,2.756492e+03
8.745613e+02,2.761477e+03
8.861321e+02,2.791359e+03
8.977029e+02,2.757028e+03
9.092737e+02,2.791496e+03
9.208445e+02,2.782807e+03
9.324153e+02,2.821840e+03
9.439861e+02,2.812211e+03
9.555569e+02,2.910020e+03
9.671277e+02,2.823077e+03
9.786985e+02,2.824233e+03
9.902693e+02,2.815314e+03
1.001840e+03,2.845756e+03
1.013411e+03,2.838133e+03
1.024982e+03,2.836187e+03
1.036552e+03,2.833283e+03
1.048123e+03,2.820007e+03
1.059694e+03,2.806498e+03
1.071265e+03,2.790760e+03
1.082836e+03,2.800971e+03
1.094406e+03,2.785261e+03
1.105977e+03,2.889502e+03
1.117548e+03,2.756368e+03
1.129119e+03,2.761011e+03
1.140690e+03,3.010817e+03
1.152261e+03,2.719561e+03
1.163831e+03,2.662869e+03
1.175402e+03,2.620157e+03
1.186973e+03,2.672966e+03
1.198544e+03,2.648152e+03
1.210115e+03,2.647698e+03
1.221685e+03,2.567483e+03
1.233256e+03,2.472623e+03
1.244827e+03,2.433379e+03
1.256398e+03,2.394362e+03
1.267969e+03,2.365841e+03
1.279539e+03,2.318343e+03
1.291110e+03,2.305537e+03
1.302681e+03,2.395922e+03
1.314252e+03,2.286697e+03
1.325823e+03,2.283277e+03
1.337393e+03,2.830346e+03
1.348964e+03,2.213784e+03
1.360535e+03,2.113091e+03
1.372106e+03,2.106639e+03
1.383677e+03,2.029754e+03
1.395247e+03,1.993033e+03
1.406818e+03,1.957806e+03
1.418389e+03,1.921507e+03
1.429960e+03,1.919270e+03
1.441531e+03,1.906510e+03
1.453101e+03,2.028152e+03
1.464672e+03,1.804510e+03
1.476243e+03,1.778056e+03
1.487814e+03,1.740694e+03
1.499385e+03,1.707668e+03
1.510955e+03,1.690984e+03
1.522526e+03,2.227178e+03
1.534097e+03,1.991329e+03
1.545668e+03,1.635152e+03
1.557239e+03,1.576887e+03
1.568809e+03,1.534207e+03
1.580380e+03,1.523660e+03
1.591951e+03,1.513420e+03
1.603522e+03,1.493470e+03
1.615093e+03,1.451822e+03
1.626663e+03,1.430686e+03
1.638234e+03,1.385712e+03
1.649805e+03,1.363161e+03
1.661376e+03,1.336536e+03
1.672947e+03,1.315999e+03
1.684517e+03,1.298919e+03
1.696088e+03,1.279646e+03
1.707659e+03,1.261447e+03
1.719230e+03,1.238131e+03
1.730801e+03,1.223145e+03
1.742371e+03,1.203639e+03
1.753942e+03,1.184006e+03
1.765513e+03,1.166961e+03
1.777084e+03,1.148347e+03
1.788655e+03,1.134383e+03
1.800225e+03,1.121264e+03
1.811796e+03,1.105991e+03
1.823367e+03,1.087028e+03
1.834938e+03,1.081742e+03
1.846509e+03,1.060399e+03
1.858079e+03,1.049606e+03
1.869650e+03,1.032999e+03
1.881221e+03,1.016055e+03
1.892792e+03,1.006584e+03
1.904363e+03,9.905354e+02
1.915933e+03,9.966639e+02
1.927504e+03,9.669084e+02
1.939075e+03,9.592738e+02
1.950646e+03,9.496178e+02
1.962217e+03,9.249899e+02
1.973787e+03,9.114818e+02
1.985358e+03,9.024454e+02
1.996929e+03,8.857608e+02
2.008500e+03,8.800228e+02
2.020071e+03,8.652624e+02
2.031641e+03,8.743854e+02
2.043212e+03,8.507057e+02
2.054783e+03,8.467283e+02
2.066354e+03,8.346736e+02
2.077925e+03,8.115922e+02
2.089496e+03,8.075292e+02
2.101066e+03,7.975613e+02
2.112637e+03,7.847587e+02
2.124208e+03,7.687740e+02
2.135779e+03,7.668775e+02
2.147350e+03,7.539484e+02
2.158920e+03,7.505076e+02
2.170491e+03,7.385775e+02
2.182062e+03,7.309397e+02
2.193633e+03,7.206087e+02
2.205204e+03,7.320004e+02
2.216774e+03,7.183160e+02
2.228345e+03,6.913211e+02
2.239916e+03,6.954006e+02
2.251487e+03,6.844213e+02
2.263058e+03,6.758897e+02
2.274628e+03,6.810016e+02
2.286199e+03,6.608508e+02
2.297770e+03,6.416749e+02
2.309341e+03,6.448519e+02
2.320912e+03,6.430811e+02
2.332482e+03,6.342958e+02
2.344053e+03,6.204601e+02
2.355624e+03,6.173557e+02
2.367195e+03,6.049579e+02
2.378766e+03,6.036830e+02
2.390336e+03,5.977237e+02
2.401907e+03,5.832674e+02
2.413478e+03,5.735771e+02
2.425049e+03,5.720892e+02
2.436620e+03,5.687356e+02
2.448190e+03,5.543467e+02
2.459761e+03,5.515717e+02
2.471332e+03,5.413729e+02
2.482903e+03,5.359321e+02
2.494474e+03,5.227032e+02
2.506044e+03,5.286860e+02
2.517615e+03,5.199793e+02
2.529186e+03,5.116777e+02
2.540757e+03,5.017715e+02
2.552328e+03,5.024997e+02
2.563898e+03,4.888620e+02
2.575469e+03,4.900909e+02
2.587040e+03,4.736830e+02
2.598611e+03,4.733627e+02
2.610182e+03,4.833534e+02
2.621752e+03,4.611043e+02
2.633323e+03,4.515245e+02
2.644894e+03,4.539679e+02
2.656465e+03,4.517982e+02
2.668036e+03,4.458820e+02
2.679606e+03,4.453166e+02
2.691177e+03,4.352003e+02
2.702748e+03,4.292845e+02
2.714319e+03,4.351241e+02
2.725890e+03,4.187828e+02
2.737460e+03,4.163082e+02
2.749031e+03,4.119550e+02
2.760602e+03,4.105599e+02
2.772173e+03,4.010590e+02
2.783744e+03,4.169778e+02
2.795314e+03,4.099249e+02
2.806885e+03,3.957293e+02
2.818456e+03,3.938618e+02
2.830027e+03,3.892719e+02
2.841598e+03,3.934456e+02
2.853168e+03,3.946789e+02
2.864739e+03,4.131495e+02
2.876310e+03,4.019610e+02
2.887881e+03,4.227529e+02
2.899452e+03,4.260217e+02
2.911022e+03,4.373575e+02
2.922593e+03,4.001258e+02
2.934164e+03,4.157557e+02
2.945735e+03,4.197119e+02
2.957306e+03,4.527849e+02
2.968876e+03,3.910587e+02
2.980447e+03,3.902958e+02
2.992018e+03,3.937741e+02
3.003589e+03,3.956818e+02
3.015160e+03,3.802891e+02
3.026730e+03,4.001597e+02
3.038301e+03,4.048365e+02
3.049872e+03,4.128942e+02
3.061443e+03,4.235188e+02
3.073014e+03,4.076859e+02
3.084584e+03,4.247423e+02
3.096155e+03,4.101749e+02
3.107726e+03,3.981180e+02
3.119297e+03,4.405853e+02
3.130868e+03,4.344883e+02
3.142438e+03,4.261576e+02
3.154009e+03,4.604730e+02
3.165580e+03,4.379351e+02
3.177151e+03,4.488015e+02
3.188722e+03,4.597920e+02
3.200292e+03,4.887061e+02
3.211863e+03,0.000000e+00
3.223434e+03,0.000000e+00
3.235005e+03,0.000000e+00
3.246576e+03,0.000000e+00
3.258146e+03,0.000000e+00
3.269717e+03,0.000000e+00
3.281288e+03,0.000000e+00
3.292859e+03,0.000000e+00
3.304430e+03,0.000000e+00
3.316000e+03,0.000000e+00
3.327571e+03,0.000000e+00
3.339142e+03,0.000000e+00
3.350713e+03,0.000000e+00
3.362284e+03,0.000000e+00
3.373854e+03,0.000000e+00
3.385425e+03,0.000000e+00
3.396996e+03,0.000000e+00
3.408567e+03,0.000000e+00
3.420138e+03,0.000000e+00
3.431708e+03,0.000000e+00
3.443279e+03,0.000000e+00
3.454850e+03,0.000000e+00
3.466421e+03,0.000000e+00
3.477992e+03,0.000000e+00
3.489563e+03,0.000000e+00
3.500169e+03,0.000000e+00

File: blue frag2.CSV
9.931763e+01,0.000000e+00
1.108884e+02,0.000000e+00
1.224592e+02,0.000000e+00
1.340300e+02,0.000000e+00
1.456008e+02,0.000000e+00
1.571716e+02,0.000000e+00
1.687424e+02,0.000000e+00
1.803132e+02,0.000000e+00
1.918840e+02,0.000000e+00
2.034548e+02,1.051899e+04
2.150256e+02,1.057905e+04
2.265964e+02,1.068651e+04
2.381673e+02,1.083713e+04
2.497381e+02,1.092278e+04
2.613088e+02,1.101875e+04
2.728796e+02,1.114345e+04
2.844504e+02,1.128443e+04
2.960212e+02,1.138987e+04
3.075920e+02,1.148845e+04
3.191628e+02,1.160775e+04
3.307336e+02,1.175910e+04
3.423044e+02,1.188976e+04
3.538752e+02,1.203829e+04
3.654461e+02,1.215099e+04
3.770169e+02,1.231110e+04
3.885877e+02,1.246675e+04
4.001585e+02,1.259455e+04
4.117293e+02,1.274362e+04
4.233001e+02,1.288550e+04
4.348709e+02,1.304495e+04
4.464417e+02,1.321596e+04
4.580125e+02,1.333318e+04
4.695833e+02,1.347341e+04
4.811541e+02,1.360224e+04
4.927249e+02,1.374474e+04
5.042957e+02,1.387491e+04
5.158665e+02,1.399692e+04
5.274373e+02,1.410203e+04
5.390081e+02,1.416972e+04
5.505789e+02,1.428556e+04
5.621497e+02,1.439837e+04
5.737205e+02,1.446632e+04
5.852913e+02,1.457575e+04
5.968621e+02,1.471280e+04
6.084329e+02,1.480358e+04
6.200037e+02,1.484330e+04
6.315745e+02,1.490827e+04
6.431453e+02,1.500741e+04
6.547161e+02,1.510578e+04
6.662869e+02,1.514584e+04
6.778577e+02,1.514799e+04
6.894285e+02,1.519395e+04
7.009993e+02,1.524655e+04
7.125701e+02,1.527353e+04
7.241409e+02,1.524614e+04
7.357117e+02,1.522256e+04
7.472825e+02,1.526538e+04
7.588533e+02,1.522462e+04
7.704241e+02,1.514939e+04
7.819949e+02,1.512312e+04
7.935657e+02,1.513327e+04
8.051365e+02,1.507364e+04
8.167073e+02,1.502362e+04
8.282781e+02,1.500753e+04
8.398489e+02,1.495887e+04
8.514197e+02,1.483602e+04
8.629905e+02,1.478478e+04
8.745613e+02,1.470254e+04
8.861321e+02,1.467136e+04
8.977029e+02,1.454933e+04
9.092737e+02,1.445538e+04
9.208445e+02,1.435555e+04
9.324153e+02,1.430228e+04
9.439861e+02,1.419758e+04
9.555569e+02,1.405309e+04
9.671277e+02,1.394241e+04
9.786985e+02,1.383075e+04
9.902693e+02,1.367490e+04
1.001840e+03,1.353509e+04
1.013411e+03,1.346450e+04
1.024982e+03,1.337917e+04
1.036552e+03,1.323313e+04
1.048123e+03,1.311727e+04
1.059694e+03,1.305441e+04
1.071265e+03,1.300379e+04
1.082836e+03,1.290117e+04
1.094406e+03,1.274686e+04
1.105977e+03,1.268010e+04
1.117548e+03,1.262516e+04
1.129119e+03,1.251101e+04
1.140690e+03,1.242159e+04
1.152261e+03,1.239111e+04
1.163831e+03,1.232199e+04
1.175402e+03,1.221769e+04
1.186973e+03,1.215562e+04
1.198544e+03,1.215958e+04
1.210115e+03,1.211081e+04
1.221685e+03,1.206943e+04
1.233256e+03,1.204628e+04
1.244827e+03,1.207817e+04
1.256398e+03,1.208695e+04
1.267969e+03,1.206690e+04
1.279539e+03,1.209122e+04
1.291110e+03,1.213679e+04
1.302681e+03,1.218424e+04
1.314252e+03,1.220847e+04
1.325823e+03,1.225572e+04
1.337393e+03,1.235253e+04
1.348964e+03,1.241235e+04
1.360535e+03,1.244042e+04
1.372106e+03,1.250207e+04
1.383677e+03,1.255748e+04
1.395247e+03,1.262176e+04
1.406818e+03,1.258416e+04
1.418389e+03,1.261549e+04
1.429960e+03,1.263461e+04
1.441531e+03,1.263899e+04
1.453101e+03,1.263896e+04
1.464672e+03,1.261393e+04
1.476243e+03,1.258728e+04
1.487814e+03,1.248048e+04
1.499385e+03,1.238631e+04
1.510955e+03,1.235329e+04
1.522526e+03,1.230391e+04
1.534097e+03,1.224781e+04
1.545668e+03,1.208918e+04
1.557239e+03,1.211312e+04
1.568809e+03,1.203530e+04
1.580380e+03,1.193440e+04
1.591951e+03,1.185830e+04
1.603522e+03,1.181168e+04
1.615093e+03,1.174613e+04
1.626663e+03,1.164050e+04
1.638234e+03,1.154066e+04
1.649805e+03,1.148854e+04
1.661376e+03,1.140154e+04
1.672947e+03,1.135158e+04
1.684517e+03,1.127273e+04
1.696088e+03,1.117474e+04
1.707659e+03,1.116273e+04
1.719230e+03,1.101575e+04
1.730801e+03,1.096796e+04
1.742371e+03,1.090298e+04
1.753942e+03,1.080089e+04
1.765513e+03,1.072677e+04
1.777084e+03,1.061540e+04
1.788655e+03,1.059519e+04
1.800225e+03,1.054892e+04
1.811796e+03,1.043575e+04
1.823367e+03,1.038530e+04
1.834938e+03,1.031997e+04
1.846509e+03,1.023025e+04
1.858079e+03,1.014015e+04
1.869650e+03,1.005603e+04
1.881221e+03,9.993853e+03
1.892792e+03,9.909248e+03
1.904363e+03,9.803037e+03
1.915933e+03,9.723346e+03
1.927504e+03,9.636604e+03
1.939075e+03,9.602658e+03
1.950646e+03,9.513925e+03
1.962217e+03,9.439613e+03
1.973787e+03,9.411921e+03
1.985358e+03,9.341109e+03
1.996929e+03,9.197174e+03
2.008500e+03,9.164779e+03
2.020071e+03,9.070576e+03
2.031641e+03,9.043396e+03
2.043212e+03,8.933265e+03
2.054783e+03,8.858698e+03
2.066354e+03,8.791613e+03
2.077925e+03,8.720496e+03
2.089496e+03,8.649593e+03
2.101066e+03,8.555615e+03
2.112637e+03,8.454482e+03
2.124208e+03,8.448470e+03
2.135779e+03,8.349458e+03
2.147350e+03,8.250020e+03
2.158920e+03,8.188849e+03
2.170491e+03,8.163049e+03
2.182062e+03,8.023547e+03
2.193633e+03,7.997106e+03
2.205204e+03,7.946430e+03
2.216774e+03,7.876241e+03
2.228345e+03,7.716423e+03
2.239916e+03,7.723904e+03
2.251487e+03,7.652384e+03
2.263058e+03,7.552172e+03
2.274628e+03,7.481164e+03
2.286199e+03,7.325058e+03
2.297770e+03,7.345153e+03
2.309341e+03,7.278297e+03
2.320912e+03,7.206833e+03
2.332482e+03,7.159813e+03
2.344053e+03,7.121232e+03
2.355624e+03,7.072985e+03
2.367195e+03,7.007384e+03
2.378766e+03,6.898884e+03
2.390336e+03,6.863373e+03
2.401907e+03,6.765897e+03
2.413478e+03,6.707170e+03
2.425049e+03,6.669712e+03
2.436620e+03,6.611114e+03
2.448190e+03,6.554326e+03
2.459761e+03,6.493624e+03
2.471332e+03,6.445700e+03
2.482903e+03,6.425760e+03
2.494474e+03,6.317946e+03
2.506044e+03,6.336240e+03
2.517615e+03,6.254954e+03
2.529186e+03,6.180143e+03
2.540757e+03,6.112003e+03
2.552328e+03,6.066091e+03
2.563898e+03,6.050071e+03
2.575469e+03,5.973899e+03
2.587040e+03,5.950333e+03
2.598611e+03,5.890464e+03
2.610182e+03,5.860764e+03
2.621752e+03,5.761522e+03
2.633323e+03,5.715222e+03
2.644894e+03,5.664477e+03
2.656465e+03,5.682042e+03
2.668036e+03,5.586782e+03
2.679606e+03,5.555708e+03
2.691177e+03,5.489196e+03
2.702748e+03,5.444102e+03
2.714319e+03,5.412511e+03
2.725890e+03,5.336241e+03
2.737460e+03,5.287836e+03
2.749031e+03,5.245210e+03
2.760602e+03,5.187570e+03
2.772173e+03,5.171092e+03
2.783744e+03,5.140630e+03
2.795314e+03,5.048089e+03
2.806885e+03,5.095906e+03
2.818456e+03,5.039046e+03
2.830027e+03,4.988579e+03
2.841598e+03,4.897669e+03
2.853168e+03,4.877277e+03
2.864739e+03,4.816648e+03
2.876310e+03,4.827303e+03
2.887881e+03,4.782032e+03
2.899452e+03,4.761854e+03
2.911022e+03,4.727550e+03
2.922593e+03,4.659492e+03
2.934164e+03,4.661153e+03
2.945735e+03,4.570427e+03
2.957306e+03,4.574695e+03
2.968876e+03,4.555599e+03
2.980447e+03,4.470259e+03
2.992018e+03,4.473275e+03
3.003589e+03,4.427428e+03
3.015160e+03,4.374484e+03
3.026730e+03,4.352536e+03
3.038301e+03,4.358800e+03
3.049872e+03,4.321222e+03
3.061443e+03,4.343737e+03
3.073014e+03,4.312830e+03
3.084584e+03,4.221593e+03
3.096155e+03,4.352627e+03
3.107726e+03,4.122132e+03
3.119297e+03,4.233483e+03
3.130868e+03,4.175947e+03
3.142438e+03,4.124372e+03
3.154009e+03,4.164020e+03
3.165580e+03,4.147339e+03
3.177151e+03,4.104132e+03
3.188722e+03,4.058296e+03
3.200292e+03,4.056110e+03
3.211863e+03,0.000000e+00
3.223434e+03,0.000000e+00
3.235005e+03,0.000000e+00
3.246576e+03,0.000000e+00
3.258146e+03,0.000000e+00
3.269717e+03,0.000000e+00
3.281288e+03,0.000000e+00
3.292859e+03,0.000000e+00
3.304430e+03,0.000000e+00
3.316000e+03,0.000000e+00
3.327571e+03,0.000000e+00
3.339142e+03,0.000000e+00
3.350713e+03,0.000000e+00
3.362284e+03,0.000000e+00
3.373854e+03,0.000000e+00
3.385425e+03,0.000000e+00
3.396996e+03,0.000000e+00
3.408567e+03,0.000000e+00
3.420138e+03,0.000000e+00
3.431708e+03,0.000000e+00
3.443279e+03,0.000000e+00
3.454850e+03,0.000000e+00
3.466421e+03,0.000000e+00
3.477992e+03,0.000000e+00
3.489563e+03,0.000000e+00
3.500169e+03,0.000000e+00