Folder: Taff_Bargoed_microplastics_data/RAMAN_data/12022024_r2 (part 5)

File: red fibre1.CSV
9.931763e+01,0.000000e+00
1.108884e+02,0.000000e+00
1.224592e+02,0.000000e+00
1.340300e+02,0.000000e+00
1.456008e+02,0.000000e+00
1.571716e+02,0.000000e+00
1.687424e+02,0.000000e+00
1.803132e+02,0.000000e+00
1.918840e+02,0.000000e+00
2.034548e+02,2.553173e+03
2.150256e+02,2.551009e+03
2.265964e+02,2.551595e+03
2.381673e+02,2.566853e+03
2.497381e+02,2.575851e+03
2.613088e+02,2.580538e+03
2.728796e+02,2.583015e+03
2.844504e+02,2.598039e+03
2.960212e+02,2.590175e+03
3.075920e+02,2.571700e+03
3.191628e+02,2.576660e+03
3.307336e+02,2.584524e+03
3.423044e+02,2.563805e+03
3.538752e+02,2.590564e+03
3.654461e+02,2.569521e+03
3.770169e+02,2.595926e+03
3.885877e+02,2.562653e+03
4.001585e+02,2.549728e+03
4.117293e+02,2.536544e+03
4.233001e+02,2.535583e+03
4.348709e+02,2.542454e+03
4.464417e+02,2.509918e+03
4.580125e+02,2.511646e+03
4.695833e+02,2.496235e+03
4.811541e+02,2.487438e+03
4.927249e+02,2.473474e+03
5.042957e+02,2.457050e+03
5.158665e+02,2.477863e+03
5.274373e+02,2.460000e+03
5.390081e+02,2.438648e+03
5.505789e+02,2.425389e+03
5.621497e+02,2.409849e+03
5.737205e+02,2.408318e+03
5.852913e+02,2.399096e+03
5.968621e+02,2.386275e+03
6.084329e+02,2.376813e+03
6.200037e+02,2.348248e+03
6.315745e+02,2.354427e+03
6.431453e+02,2.342845e+03
6.547161e+02,2.322858e+03
6.662869e+02,2.295520e+03
6.778577e+02,2.288186e+03
6.894285e+02,2.289303e+03
7.009993e+02,2.265022e+03
7.125701e+02,2.261239e+03
7.241409e+02,2.251612e+03
7.357117e+02,2.230815e+03
7.472825e+02,2.223877e+03
7.588533e+02,2.196818e+03
7.704241e+02,2.195142e+03
7.819949e+02,2.165987e+03
7.935657e+02,2.169660e+03
8.051365e+02,2.153432e+03
8.167073e+02,2.134359e+03
8.282781e+02,2.115713e+03
8.398489e+02,2.113243e+03
8.514197e+02,2.101751e+03
8.629905e+02,2.091248e+03
8.745613e+02,2.078535e+03
8.861321e+02,2.073608e+03
8.977029e+02,2.053523e+03
9.092737e+02,2.025234e+03
9.208445e+02,2.016292e+03
9.324153e+02,1.995033e+03
9.439861e+02,1.997780e+03
9.555569e+02,1.974796e+03
9.671277e+02,1.973012e+03
9.786985e+02,1.965225e+03
9.902693e+02,1.948199e+03
1.001840e+03,1.930359e+03
1.013411e+03,1.920699e+03
1.024982e+03,1.906078e+03
1.036552e+03,1.906734e+03
1.048123e+03,1.886408e+03
1.059694e+03,1.882386e+03
1.071265e+03,1.879760e+03
1.082836e+03,1.883890e+03
1.094406e+03,1.890413e+03
1.105977e+03,1.861061e+03
1.117548e+03,1.857190e+03
1.129119e+03,1.835728e+03
1.140690e+03,1.819005e+03
1.152261e+03,1.813756e+03
1.163831e+03,1.798549e+03
1.175402e+03,1.782888e+03
1.186973e+03,1.763699e+03
1.198544e+03,1.769591e+03
1.210115e+03,1.753708e+03
1.221685e+03,1.756181e+03
1.233256e+03,1.738142e+03
1.244827e+03,1.742084e+03
1.256398e+03,1.742968e+03
1.267969e+03,1.720869e+03
1.279539e+03,1.709366e+03
1.291110e+03,1.724699e+03
1.302681e+03,1.698985e+03
1.314252e+03,1.681310e+03
1.325823e+03,1.696056e+03
1.337393e+03,1.689268e+03
1.348964e+03,1.686013e+03
1.360535e+03,1.663554e+03
1.372106e+03,1.662867e+03
1.383677e+03,1.652666e+03
1.395247e+03,1.627919e+03
1.406818e+03,1.636673e+03
1.418389e+03,1.623234e+03
1.429960e+03,1.608553e+03
1.441531e+03,1.594918e+03
1.453101e+03,1.584911e+03
1.464672e+03,1.579757e+03
1.476243e+03,1.573527e+03
1.487814e+03,1.544327e+03
1.499385e+03,1.538477e+03
1.510955e+03,1.541399e+03
1.522526e+03,1.523250e+03
1.534097e+03,1.513523e+03
1.545668e+03,1.501070e+03
1.557239e+03,1.512283e+03
1.568809e+03,1.497092e+03
1.580380e+03,1.499671e+03
1.591951e+03,1.497857e+03
1.603522e+03,1.475150e+03
1.615093e+03,1.466530e+03
1.626663e+03,1.463907e+03
1.638234e+03,1.430114e+03
1.649805e+03,1.427082e+03
1.661376e+03,1.414680e+03
1.672947e+03,1.387785e+03
1.684517e+03,1.389668e+03
1.696088e+03,1.370822e+03
1.707659e+03,1.356692e+03
1.719230e+03,1.360593e+03
1.730801e+03,1.327679e+03
1.742371e+03,1.336391e+03
1.753942e+03,1.318684e+03
1.765513e+03,1.308934e+03
1.777084e+03,1.314846e+03
1.788655e+03,1.286476e+03
1.800225e+03,1.280791e+03
1.811796e+03,1.277492e+03
1.823367e+03,1.260148e+03
1.834938e+03,1.248327e+03
1.846509e+03,1.246970e+03
1.858079e+03,1.225384e+03
1.869650e+03,1.221358e+03
1.881221e+03,1.194910e+03
1.892792e+03,1.193701e+03
1.904363e+03,1.173957e+03
1.915933e+03,1.165483e+03
1.927504e+03,1.165957e+03
1.939075e+03,1.140946e+03
1.950646e+03,1.139672e+03
1.962217e+03,1.136885e+03
1.973787e+03,1.126585e+03
1.985358e+03,1.094600e+03
1.996929e+03,1.098311e+03
2.008500e+03,1.073792e+03
2.020071e+03,1.070838e+03
2.031641e+03,1.063523e+03
2.043212e+03,1.044709e+03
2.054783e+03,1.026502e+03
2.066354e+03,1.027098e+03
2.077925e+03,1.004065e+03
2.089496e+03,1.004101e+03
2.101066e+03,9.886348e+02
2.112637e+03,9.751005e+02
2.124208e+03,9.839483e+02
2.135779e+03,9.544337e+02
2.147350e+03,9.348561e+02
2.158920e+03,9.471360e+02
2.170491e+03,9.289307e+02
2.182062e+03,9.153325e+02
2.193633e+03,8.960991e+02
2.205204e+03,8.935107e+02
2.216774e+03,8.782932e+02
2.228345e+03,8.587510e+02
2.239916e+03,8.711765e+02
2.251487e+03,8.548656e+02
2.263058e+03,8.470875e+02
2.274628e+03,8.458674e+02
2.286199e+03,8.161915e+02
2.297770e+03,8.358834e+02
2.309341e+03,8.123511e+02
2.320912e+03,8.017855e+02
2.332482e+03,7.886730e+02
2.344053e+03,7.772083e+02
2.355624e+03,7.591581e+02
2.367195e+03,7.736562e+02
2.378766e+03,7.504605e+02
2.390336e+03,7.420768e+02
2.401907e+03,7.379461e+02
2.413478e+03,7.306976e+02
2.425049e+03,7.196353e+02
2.436620e+03,7.159838e+02
2.448190e+03,7.058290e+02
2.459761e+03,6.972029e+02
2.471332e+03,6.930986e+02
2.482903e+03,6.874656e+02
2.494474e+03,6.672990e+02
2.506044e+03,6.767756e+02
2.517615e+03,6.663182e+02
2.529186e+03,6.618456e+02
2.540757e+03,6.579090e+02
2.552328e+03,6.613417e+02
2.563898e+03,6.403195e+02
2.575469e+03,6.483715e+02
2.587040e+03,6.366825e+02
2.598611e+03,6.271569e+02
2.610182e+03,6.309633e+02
2.621752e+03,6.186503e+02
2.633323e+03,6.051298e+02
2.644894e+03,5.901062e+02
2.656465e+03,6.003228e+02
2.668036e+03,5.971904e+02
2.679606e+03,5.861689e+02
2.691177e+03,5.885867e+02
2.702748e+03,5.640781e+02
2.714319e+03,5.860687e+02
2.725890e+03,5.607100e+02
2.737460e+03,5.574943e+02
2.749031e+03,5.635123e+02
2.760602e+03,5.525887e+02
2.772173e+03,5.610361e+02
2.783744e+03,5.535969e+02
2.795314e+03,5.492685e+02
2.806885e+03,5.383299e+02
2.818456e+03,5.328684e+02
2.830027e+03,5.287011e+02
2.841598e+03,5.412650e+02
2.853168e+03,5.385778e+02
2.864739e+03,5.561744e+02
2.876310e+03,5.548509e+02
2.887881e+03,5.609014e+02
2.899452e+03,5.623161e+02
2.911022e+03,5.583763e+02
2.922593e+03,5.174242e+02
2.934164e+03,5.186262e+02
2.945735e+03,5.289994e+02
2.957306e+03,5.373349e+02
2.968876e+03,5.067789e+02
2.980447e+03,4.977065e+02
2.992018e+03,4.826837e+02
3.003589e+03,4.597376e+02
3.015160e+03,4.717570e+02
3.026730e+03,4.596124e+02
3.038301e+03,4.665770e+02
3.049872e+03,4.821477e+02
3.061443e+03,4.649209e+02
3.073014e+03,4.807104e+02
3.084584e+03,4.527614e+02
3.096155e+03,4.773613e+02
3.107726e+03,4.643389e+02
3.119297e+03,4.527996e+02
3.130868e+03,4.876087e+02
3.142438e+03,4.835643e+02
3.154009e+03,4.542239e+02
3.165580e+03,4.792526e+02
3.177151e+03,4.516602e+02
3.188722e+03,4.594755e+02
3.200292e+03,4.941993e+02
3.211863e+03,0.000000e+00
3.223434e+03,0.000000e+00
3.235005e+03,0.000000e+00
3.246576e+03,0.000000e+00
3.258146e+03,0.000000e+00
3.269717e+03,0.000000e+00
3.281288e+03,0.000000e+00
3.292859e+03,0.000000e+00
3.304430e+03,0.000000e+00
3.316000e+03,0.000000e+00
3.327571e+03,0.000000e+00
3.339142e+03,0.000000e+00
3.350713e+03,0.000000e+00
3.362284e+03,0.000000e+00
3.373854e+03,0.000000e+00
3.385425e+03,0.000000e+00
3.396996e+03,0.000000e+00
3.408567e+03,0.000000e+00
3.420138e+03,0.000000e+00
3.431708e+03,0.000000e+00
3.443279e+03,0.000000e+00
3.454850e+03,0.000000e+00
3.466421e+03,0.000000e+00
3.477992e+03,0.000000e+00
3.489563e+03,0.000000e+00
3.500169e+03,0.000000e+00

File: red fibre4.CSV
9.931763e+01,0.000000e+00
1.108884e+02,0.000000e+00
1.224592e+02,0.000000e+00
1.340300e+02,0.000000e+00
1.456008e+02,0.000000e+00
1.571716e+02,0.000000e+00
1.687424e+02,0.000000e+00
1.803132e+02,0.000000e+00
1.918840e+02,0.000000e+00
2.034548e+02,1.294458e+03
2.150256e+02,1.293343e+03
2.265964e+02,1.284597e+03
2.381673e+02,1.295290e+03
2.497381e+02,1.284787e+03
2.613088e+02,1.290025e+03
2.728796e+02,1.291054e+03
2.844504e+02,1.299150e+03
2.960212e+02,1.285084e+03
3.075920e+02,1.280013e+03
3.191628e+02,1.266725e+03
3.307336e+02,1.273878e+03
3.423044e+02,1.263369e+03
3.538752e+02,1.251805e+03
3.654461e+02,1.254781e+03
3.770169e+02,1.273415e+03
3.885877e+02,1.239819e+03
4.001585e+02,1.225206e+03
4.117293e+02,1.219660e+03
4.233001e+02,1.229557e+03
4.348709e+02,1.242522e+03
4.464417e+02,1.212329e+03
4.580125e+02,1.206714e+03
4.695833e+02,1.193416e+03
4.811541e+02,1.192442e+03
4.927249e+02,1.178437e+03
5.042957e+02,1.169773e+03
5.158665e+02,1.161289e+03
5.274373e+02,1.152237e+03
5.390081e+02,1.133051e+03
5.505789e+02,1.128221e+03
5.621497e+02,1.130693e+03
5.737205e+02,1.107931e+03
5.852913e+02,1.109599e+03
5.968621e+02,1.106007e+03
6.084329e+02,1.107779e+03
6.200037e+02,1.092813e+03
6.315745e+02,1.088889e+03
6.431453e+02,1.078485e+03
6.547161e+02,1.066955e+03
6.662869e+02,1.054152e+03
6.778577e+02,1.050233e+03
6.894285e+02,1.040118e+03
7.009993e+02,1.030434e+03
7.125701e+02,1.026149e+03
7.241409e+02,1.011643e+03
7.357117e+02,1.001028e+03
7.472825e+02,9.978300e+02
7.588533e+02,9.944396e+02
7.704241e+02,9.771374e+02
7.819949e+02,9.723195e+02
7.935657e+02,9.754851e+02
8.051365e+02,9.617858e+02
8.167073e+02,9.613143e+02
8.282781e+02,9.640191e+02
8.398489e+02,9.546115e+02
8.514197e+02,9.431647e+02
8.629905e+02,9.494399e+02
8.745613e+02,9.390359e+02
8.861321e+02,9.329960e+02
8.977029e+02,9.312556e+02
9.092737e+02,9.135983e+02
9.208445e+02,9.082809e+02
9.324153e+02,8.934371e+02
9.439861e+02,8.918556e+02
9.555569e+02,8.873855e+02
9.671277e+02,8.833649e+02
9.786985e+02,8.772654e+02
9.902693e+02,8.814047e+02
1.001840e+03,8.739265e+02
1.013411e+03,8.588420e+02
1.024982e+03,8.636932e+02
1.036552e+03,8.705886e+02
1.048123e+03,8.627883e+02
1.059694e+03,8.649094e+02
1.071265e+03,8.725131e+02
1.082836e+03,8.748779e+02
1.094406e+03,9.087011e+02
1.105977e+03,8.747382e+02
1.117548e+03,8.907802e+02
1.129119e+03,8.640917e+02
1.140690e+03,8.561668e+02
1.152261e+03,8.409036e+02
1.163831e+03,8.279398e+02
1.175402e+03,8.233774e+02
1.186973e+03,8.209460e+02
1.198544e+03,8.347123e+02
1.210115e+03,8.165961e+02
1.221685e+03,8.075396e+02
1.233256e+03,8.013984e+02
1.244827e+03,8.065315e+02
1.256398e+03,7.980305e+02
1.267969e+03,7.946119e+02
1.279539e+03,8.091653e+02
1.291110e+03,8.057147e+02
1.302681e+03,7.883683e+02
1.314252e+03,8.000339e+02
1.325823e+03,8.019519e+02
1.337393e+03,8.219250e+02
1.348964e+03,7.962199e+02
1.360535e+03,7.966115e+02
1.372106e+03,7.966016e+02
1.383677e+03,7.974158e+02
1.395247e+03,7.704571e+02
1.406818e+03,7.647121e+02
1.418389e+03,7.589642e+02
1.429960e+03,7.508193e+02
1.441531e+03,7.427391e+02
1.453101e+03,7.407987e+02
1.464672e+03,7.385085e+02
1.476243e+03,7.340872e+02
1.487814e+03,7.270573e+02
1.499385e+03,7.215502e+02
1.510955e+03,7.186191e+02
1.522526e+03,7.140107e+02
1.534097e+03,7.040354e+02
1.545668e+03,7.095006e+02
1.557239e+03,6.993688e+02
1.568809e+03,7.000305e+02
1.580380e+03,6.895850e+02
1.591951e+03,6.927392e+02
1.603522e+03,7.023826e+02
1.615093e+03,7.212341e+02
1.626663e+03,6.811552e+02
1.638234e+03,6.659090e+02
1.649805e+03,6.589363e+02
1.661376e+03,6.577270e+02
1.672947e+03,6.478781e+02
1.684517e+03,6.443026e+02
1.696088e+03,6.411439e+02
1.707659e+03,6.455207e+02
1.719230e+03,6.539445e+02
1.730801e+03,6.482379e+02
1.742371e+03,6.265258e+02
1.753942e+03,6.226414e+02
1.765513e+03,6.128876e+02
1.777084e+03,6.071415e+02
1.788655e+03,5.961188e+02
1.800225e+03,5.860052e+02
1.811796e+03,5.811459e+02
1.823367e+03,5.807926e+02
1.834938e+03,5.653196e+02
1.846509e+03,5.655157e+02
1.858079e+03,5.583298e+02
1.869650e+03,5.537701e+02
1.881221e+03,5.527332e+02
1.892792e+03,5.472405e+02
1.904363e+03,5.423031e+02
1.915933e+03,5.391934e+02
1.927504e+03,5.198140e+02
1.939075e+03,5.125015e+02
1.950646e+03,5.079824e+02
1.962217e+03,5.084898e+02
1.973787e+03,5.013176e+02
1.985358e+03,4.981785e+02
1.996929e+03,4.879484e+02
2.008500e+03,4.799164e+02
2.020071e+03,4.715443e+02
2.031641e+03,4.747976e+02
2.043212e+03,4.663877e+02
2.054783e+03,4.627187e+02
2.066354e+03,4.611265e+02
2.077925e+03,4.631581e+02
2.089496e+03,4.474643e+02
2.101066e+03,4.431908e+02
2.112637e+03,4.382709e+02
2.124208e+03,4.344164e+02
2.135779e+03,4.165215e+02
2.147350e+03,4.037452e+02
2.158920e+03,4.065698e+02
2.170491e+03,4.097777e+02
2.182062e+03,3.985913e+02
2.193633e+03,3.881658e+02
2.205204e+03,4.007603e+02
2.216774e+03,3.852671e+02
2.228345e+03,3.850834e+02
2.239916e+03,3.859110e+02
2.251487e+03,3.725666e+02
2.263058e+03,3.760876e+02
2.274628e+03,3.631049e+02
2.286199e+03,3.710528e+02
2.297770e+03,3.567697e+02
2.309341e+03,3.540913e+02
2.320912e+03,3.410931e+02
2.332482e+03,3.391889e+02
2.344053e+03,3.462953e+02
2.355624e+03,3.363197e+02
2.367195e+03,3.316776e+02
2.378766e+03,3.280457e+02
2.390336e+03,3.222451e+02
2.401907e+03,3.200347e+02
2.413478e+03,3.163555e+02
2.425049e+03,3.123012e+02
2.436620e+03,3.186245e+02
2.448190e+03,3.084817e+02
2.459761e+03,3.030357e+02
2.471332e+03,2.971880e+02
2.482903e+03,2.933555e+02
2.494474e+03,2.884861e+02
2.506044e+03,2.935532e+02
2.517615e+03,2.870717e+02
2.529186e+03,2.780022e+02
2.540757e+03,2.865834e+02
2.552328e+03,2.883253e+02
2.563898e+03,2.931507e+02
2.575469e+03,2.945776e+02
2.587040e+03,2.762059e+02
2.598611e+03,2.677068e+02
2.610182e+03,2.654947e+02
2.621752e+03,2.656226e+02
2.633323e+03,2.665771e+02
2.644894e+03,2.633907e+02
2.656465e+03,2.700800e+02
2.668036e+03,2.539280e+02
2.679606e+03,2.618134e+02
2.691177e+03,2.594327e+02
2.702748e+03,2.498071e+02
2.714319e+03,2.637226e+02
2.725890e+03,2.519369e+02
2.737460e+03,2.519055e+02
2.749031e+03,2.490885e+02
2.760602e+03,2.515290e+02
2.772173e+03,2.398113e+02
2.783744e+03,2.556895e+02
2.795314e+03,2.460175e+02
2.806885e+03,2.401066e+02
2.818456e+03,2.425797e+02
2.830027e+03,2.474505e+02
2.841598e+03,2.506003e+02
2.853168e+03,2.610022e+02
2.864739e+03,2.463937e+02
2.876310e+03,2.882372e+02
2.887881e+03,2.898672e+02
2.899452e+03,2.975663e+02
2.911022e+03,2.863773e+02
2.922593e+03,2.456190e+02
2.934164e+03,2.559053e+02
2.945735e+03,2.529039e+02
2.957306e+03,2.857138e+02
2.968876e+03,2.483391e+02
2.980447e+03,2.399907e+02
2.992018e+03,2.226871e+02
3.003589e+03,2.121792e+02
3.015160e+03,2.287398e+02
3.026730e+03,2.045408e+02
3.038301e+03,2.032463e+02
3.049872e+03,2.186413e+02
3.061443e+03,2.200280e+02
3.073014e+03,1.896344e+02
3.084584e+03,2.174959e+02
3.096155e+03,2.106385e+02
3.107726e+03,2.453802e+02
3.119297e+03,2.258719e+02
3.130868e+03,2.194987e+02
3.142438e+03,2.262283e+02
3.154009e+03,2.243858e+02
3.165580e+03,2.347370e+02
3.177151e+03,2.218890e+02
3.188722e+03,1.913308e+02
3.200292e+03,2.414054e+02
3.211863e+03,0.000000e+00
3.223434e+03,0.000000e+00
3.235005e+03,0.000000e+00
3.246576e+03,0.000000e+00
3.258146e+03,0.000000e+00
3.269717e+03,0.000000e+00
3.281288e+03,0.000000e+00
3.292859e+03,0.000000e+00
3.304430e+03,0.000000e+00
3.316000e+03,0.000000e+00
3.327571e+03,0.000000e+00
3.339142e+03,0.000000e+00
3.350713e+03,0.000000e+00
3.362284e+03,0.000000e+00
3.373854e+03,0.000000e+00
3.385425e+03,0.000000e+00
3.396996e+03,0.000000e+00
3.408567e+03,0.000000e+00
3.420138e+03,0.000000e+00
3.431708e+03,0.000000e+00
3.443279e+03,0.000000e+00
3.454850e+03,0.000000e+00
3.466421e+03,0.000000e+00
3.477992e+03,0.000000e+00
3.489563e+03,0.000000e+00
3.500169e+03,0.000000e+00

File: red fibre.CSV
9.931763e+01,0.000000e+00
1.108884e+02,0.000000e+00
1.224592e+02,0.000000e+00
1.340300e+02,0.000000e+00
1.456008e+02,0.000000e+00
1.571716e+02,0.000000e+00
1.687424e+02,0.000000e+00
1.803132e+02,0.000000e+00
1.918840e+02,0.000000e+00
2.034548e+02,3.077148e+03
2.150256e+02,3.080418e+03
2.265964e+02,3.089984e+03
2.381673e+02,3.122413e+03
2.497381e+02,3.133892e+03
2.613088e+02,3.132078e+03
2.728796e+02,3.158036e+03
2.844504e+02,3.188582e+03
2.960212e+02,3.185233e+03
3.075920e+02,3.206941e+03
3.191628e+02,3.208566e+03
3.307336e+02,3.220525e+03
3.423044e+02,3.216842e+03
3.538752e+02,3.246472e+03
3.654461e+02,3.261167e+03
3.770169e+02,3.291855e+03
3.885877e+02,3.274661e+03
4.001585e+02,3.277085e+03
4.117293e+02,3.278212e+03
4.233001e+02,3.286359e+03
4.348709e+02,3.315336e+03
4.464417e+02,3.285981e+03
4.580125e+02,3.323410e+03
4.695833e+02,3.326137e+03
4.811541e+02,3.313543e+03
4.927249e+02,3.328565e+03
5.042957e+02,3.335648e+03
5.158665e+02,3.355716e+03
5.274373e+02,3.354656e+03
5.390081e+02,3.323293e+03
5.505789e+02,3.340944e+03
5.621497e+02,3.376621e+03
5.737205e+02,3.358933e+03
5.852913e+02,3.348689e+03
5.968621e+02,3.354557e+03
6.084329e+02,3.364394e+03
6.200037e+02,3.364438e+03
6.315745e+02,3.342020e+03
6.431453e+02,3.349141e+03
6.547161e+02,3.340548e+03
6.662869e+02,3.338882e+03
6.778577e+02,3.317155e+03
6.894285e+02,3.326803e+03
7.009993e+02,3.333295e+03
7.125701e+02,3.316835e+03
7.241409e+02,3.340560e+03
7.357117e+02,3.338442e+03
7.472825e+02,3.312628e+03
7.588533e+02,3.305795e+03
7.704241e+02,3.303839e+03
7.819949e+02,3.302757e+03
7.935657e+02,3.335030e+03
8.051365e+02,3.291543e+03
8.167073e+02,3.275600e+03
8.282781e+02,3.289039e+03
8.398489e+02,3.277707e+03
8.514197e+02,3.262816e+03
8.629905e+02,3.244348e+03
8.745613e+02,3.245067e+03
8.861321e+02,3.232783e+03
8.977029e+02,3.228728e+03
9.092737e+02,3.203448e+03
9.208445e+02,3.207843e+03
9.324153e+02,3.206238e+03
9.439861e+02,3.199937e+03
9.555569e+02,3.148674e+03
9.671277e+02,3.150061e+03
9.786985e+02,3.131147e+03
9.902693e+02,3.122067e+03
1.001840e+03,3.106100e+03
1.013411e+03,3.091490e+03
1.024982e+03,3.080352e+03
1.036552e+03,3.068117e+03
1.048123e+03,3.063307e+03
1.059694e+03,3.037308e+03
1.071265e+03,3.046901e+03
1.082836e+03,3.030242e+03
1.094406e+03,3.051509e+03
1.105977e+03,3.009077e+03
1.117548e+03,3.052156e+03
1.129119e+03,3.007164e+03
1.140690e+03,2.964969e+03
1.152261e+03,2.965167e+03
1.163831e+03,2.922194e+03
1.175402e+03,2.901839e+03
1.186973e+03,2.892907e+03
1.198544e+03,2.891971e+03
1.210115e+03,2.856465e+03
1.221685e+03,2.836490e+03
1.233256e+03,2.833531e+03
1.244827e+03,2.818930e+03
1.256398e+03,2.803441e+03
1.267969e+03,2.815551e+03
1.279539e+03,2.768785e+03
1.291110e+03,2.753428e+03
1.302681e+03,2.746292e+03
1.314252e+03,2.727125e+03
1.325823e+03,2.715986e+03
1.337393e+03,2.716395e+03
1.348964e+03,2.703855e+03
1.360535e+03,2.701513e+03
1.372106e+03,2.767200e+03
1.383677e+03,2.702635e+03
1.395247e+03,2.665895e+03
1.406818e+03,2.654744e+03
1.418389e+03,2.622637e+03
1.429960e+03,2.599253e+03
1.441531e+03,2.588616e+03
1.453101e+03,2.575630e+03
1.464672e+03,2.586350e+03
1.476243e+03,2.565821e+03
1.487814e+03,2.540675e+03
1.499385e+03,2.520771e+03
1.510955e+03,2.488778e+03
1.522526e+03,2.489723e+03
1.534097e+03,2.472363e+03
1.545668e+03,2.463642e+03
1.557239e+03,2.450088e+03
1.568809e+03,2.462579e+03
1.580380e+03,2.461810e+03
1.591951e+03,2.490272e+03
1.603522e+03,2.423876e+03
1.615093e+03,2.382547e+03
1.626663e+03,2.381180e+03
1.638234e+03,2.358024e+03
1.649805e+03,2.342203e+03
1.661376e+03,2.338736e+03
1.672947e+03,2.319962e+03
1.684517e+03,2.303022e+03
1.696088e+03,2.315140e+03
1.707659e+03,2.291553e+03
1.719230e+03,2.286944e+03
1.730801e+03,2.270050e+03
1.742371e+03,2.251812e+03
1.753942e+03,2.225088e+03
1.765513e+03,2.235484e+03
1.777084e+03,2.212943e+03
1.788655e+03,2.207707e+03
1.800225e+03,2.203366e+03
1.811796e+03,2.184208e+03
1.823367e+03,2.156880e+03
1.834938e+03,2.152452e+03
1.846509e+03,2.136877e+03
1.858079e+03,2.116968e+03
1.869650e+03,2.100346e+03
1.881221e+03,2.112011e+03
1.892792e+03,2.081333e+03
1.904363e+03,2.062053e+03
1.915933e+03,2.056514e+03
1.927504e+03,2.035488e+03
1.939075e+03,2.025637e+03
1.950646e+03,2.000904e+03
1.962217e+03,2.010987e+03
1.973787e+03,1.983276e+03
1.985358e+03,1.969795e+03
1.996929e+03,1.959410e+03
2.008500e+03,1.946714e+03
2.020071e+03,1.929926e+03
2.031641e+03,1.904073e+03
2.043212e+03,1.889646e+03
2.054783e+03,1.890531e+03
2.066354e+03,1.865657e+03
2.077925e+03,1.837366e+03
2.089496e+03,1.840591e+03
2.101066e+03,1.808671e+03
2.112637e+03,1.792035e+03
2.124208e+03,1.786855e+03
2.135779e+03,1.756161e+03
2.147350e+03,1.739130e+03
2.158920e+03,1.724152e+03
2.170491e+03,1.730236e+03
2.182062e+03,1.712379e+03
2.193633e+03,1.684666e+03
2.205204e+03,1.677810e+03
2.216774e+03,1.647893e+03
2.228345e+03,1.614096e+03
2.239916e+03,1.625467e+03
2.251487e+03,1.580936e+03
2.263058e+03,1.592519e+03
2.274628e+03,1.570733e+03
2.286199e+03,1.553314e+03
2.297770e+03,1.534237e+03
2.309341e+03,1.526588e+03
2.320912e+03,1.511603e+03
2.332482e+03,1.501324e+03
2.344053e+03,1.481960e+03
2.355624e+03,1.473494e+03
2.367195e+03,1.456062e+03
2.378766e+03,1.441213e+03
2.390336e+03,1.425230e+03
2.401907e+03,1.416513e+03
2.413478e+03,1.393273e+03
2.425049e+03,1.419270e+03
2.436620e+03,1.398602e+03
2.448190e+03,1.355755e+03
2.459761e+03,1.339882e+03
2.471332e+03,1.341727e+03
2.482903e+03,1.348337e+03
2.494474e+03,1.310251e+03
2.506044e+03,1.308646e+03
2.517615e+03,1.284192e+03
2.529186e+03,1.284546e+03
2.540757e+03,1.275998e+03
2.552328e+03,1.270369e+03
2.563898e+03,1.270978e+03
2.575469e+03,1.252447e+03
2.587040e+03,1.235748e+03
2.598611e+03,1.223492e+03
2.610182e+03,1.212300e+03
2.621752e+03,1.214551e+03
2.633323e+03,1.191837e+03
2.644894e+03,1.173441e+03
2.656465e+03,1.189508e+03
2.668036e+03,1.176647e+03
2.679606e+03,1.169686e+03
2.691177e+03,1.153275e+03
2.702748e+03,1.134298e+03
2.714319e+03,1.141061e+03
2.725890e+03,1.128199e+03
2.737460e+03,1.108455e+03
2.749031e+03,1.106215e+03
2.760602e+03,1.095493e+03
2.772173e+03,1.096335e+03
2.783744e+03,1.092956e+03
2.795314e+03,1.076514e+03
2.806885e+03,1.064633e+03
2.818456e+03,1.050933e+03
2.830027e+03,1.089416e+03
2.841598e+03,1.069274e+03
2.853168e+03,1.069632e+03
2.864739e+03,1.056612e+03
2.876310e+03,1.067629e+03
2.887881e+03,1.064621e+03
2.899452e+03,1.097713e+03
2.911022e+03,1.065139e+03
2.922593e+03,1.039479e+03
2.934164e+03,1.030179e+03
2.945735e+03,1.013725e+03
2.957306e+03,1.036106e+03
2.968876e+03,9.880773e+02
2.980447e+03,9.549500e+02
2.992018e+03,9.466161e+02
3.003589e+03,9.662088e+02
3.015160e+03,9.495394e+02
3.026730e+03,9.487375e+02
3.038301e+03,9.608161e+02
3.049872e+03,9.424385e+02
3.061443e+03,9.450470e+02
3.073014e+03,8.799922e+02
3.084584e+03,9.216642e+02
3.096155e+03,9.345385e+02
3.107726e+03,9.173254e+02
3.119297e+03,9.264148e+02
3.130868e+03,9.125880e+02
3.142438e+03,9.140145e+02
3.154009e+03,8.918525e+02
3.165580e+03,8.963976e+02
3.177151e+03,8.951734e+02
3.188722e+03,9.430191e+02
3.200292e+03,9.442111e+02
3.211863e+03,0.000000e+00
3.223434e+03,0.000000e+00
3.235005e+03,0.000000e+00
3.246576e+03,0.000000e+00
3.258146e+03,0.000000e+00
3.269717e+03,0.000000e+00
3.281288e+03,0.000000e+00
3.292859e+03,0.000000e+00
3.304430e+03,0.000000e+00
3.316000e+03,0.000000e+00
3.327571e+03,0.000000e+00
3.339142e+03,0.000000e+00
3.350713e+03,0.000000e+00
3.362284e+03,0.000000e+00
3.373854e+03,0.000000e+00
3.385425e+03,0.000000e+00
3.396996e+03,0.000000e+00
3.408567e+03,0.000000e+00
3.420138e+03,0.000000e+00
3.431708e+03,0.000000e+00
3.443279e+03,0.000000e+00
3.454850e+03,0.000000e+00
3.466421e+03,0.000000e+00
3.477992e+03,0.000000e+00
3.489563e+03,0.000000e+00
3.500169e+03,0.000000e+00