Folder: Taff_Bargoed_microplastics_data/RAMAN_data/12022024_r1 (part 2)

File: black fibre5.CSV
9.931763e+01,0.000000e+00
1.108884e+02,0.000000e+00
1.224592e+02,0.000000e+00
1.340300e+02,0.000000e+00
1.456008e+02,0.000000e+00
1.571716e+02,0.000000e+00
1.687424e+02,0.000000e+00
1.803132e+02,0.000000e+00
1.918840e+02,0.000000e+00
2.034548e+02,5.210921e+03
2.150256e+02,5.214567e+03
2.265964e+02,5.191758e+03
2.381673e+02,5.208666e+03
2.497381e+02,5.225703e+03
2.613088e+02,5.216713e+03
2.728796e+02,5.222981e+03
2.844504e+02,5.267069e+03
2.960212e+02,5.241550e+03
3.075920e+02,5.206764e+03
3.191628e+02,5.223240e+03
3.307336e+02,5.214721e+03
3.423044e+02,5.209532e+03
3.538752e+02,5.180386e+03
3.654461e+02,5.186437e+03
3.770169e+02,5.207138e+03
3.885877e+02,5.168016e+03
4.001585e+02,5.137895e+03
4.117293e+02,5.133716e+03
4.233001e+02,5.147798e+03
4.348709e+02,5.133728e+03
4.464417e+02,5.100573e+03
4.580125e+02,5.073496e+03
4.695833e+02,5.042064e+03
4.811541e+02,5.009792e+03
4.927249e+02,4.983514e+03
5.042957e+02,4.995563e+03
5.158665e+02,4.998409e+03
5.274373e+02,4.952909e+03
5.390081e+02,4.908709e+03
5.505789e+02,4.899905e+03
5.621497e+02,4.874412e+03
5.737205e+02,4.859511e+03
5.852913e+02,4.836815e+03
5.968621e+02,4.814852e+03
6.084329e+02,4.807843e+03
6.200037e+02,4.737850e+03
6.315745e+02,4.747782e+03
6.431453e+02,4.707655e+03
6.547161e+02,4.682979e+03
6.662869e+02,4.670542e+03
6.778577e+02,4.617719e+03
6.894285e+02,4.603752e+03
7.009993e+02,4.595557e+03
7.125701e+02,4.575787e+03
7.241409e+02,4.548189e+03
7.357117e+02,4.544421e+03
7.472825e+02,4.522188e+03
7.588533e+02,4.470337e+03
7.704241e+02,4.430747e+03
7.819949e+02,4.417729e+03
7.935657e+02,4.408886e+03
8.051365e+02,4.365474e+03
8.167073e+02,4.380833e+03
8.282781e+02,4.350812e+03
8.398489e+02,4.316932e+03
8.514197e+02,4.288651e+03
8.629905e+02,4.271468e+03
8.745613e+02,4.245532e+03
8.861321e+02,4.214849e+03
8.977029e+02,4.181458e+03
9.092737e+02,4.165519e+03
9.208445e+02,4.140678e+03
9.324153e+02,4.107462e+03
9.439861e+02,4.111426e+03
9.555569e+02,4.082569e+03
9.671277e+02,4.059348e+03
9.786985e+02,4.048398e+03
9.902693e+02,4.019980e+03
1.001840e+03,3.990591e+03
1.013411e+03,3.970784e+03
1.024982e+03,3.979234e+03
1.036552e+03,3.959420e+03
1.048123e+03,3.931062e+03
1.059694e+03,3.925974e+03
1.071265e+03,3.955904e+03
1.082836e+03,3.936677e+03
1.094406e+03,3.928357e+03
1.105977e+03,3.910550e+03
1.117548e+03,3.926719e+03
1.129119e+03,3.868892e+03
1.140690e+03,3.893781e+03
1.152261e+03,3.900813e+03
1.163831e+03,3.900455e+03
1.175402e+03,3.820886e+03
1.186973e+03,3.787230e+03
1.198544e+03,3.801253e+03
1.210115e+03,3.795477e+03
1.221685e+03,3.742958e+03
1.233256e+03,3.722857e+03
1.244827e+03,3.719538e+03
1.256398e+03,3.698331e+03
1.267969e+03,3.693818e+03
1.279539e+03,3.704321e+03
1.291110e+03,3.713564e+03
1.302681e+03,3.706791e+03
1.314252e+03,3.730616e+03
1.325823e+03,3.737125e+03
1.337393e+03,3.723528e+03
1.348964e+03,3.622360e+03
1.360535e+03,3.604659e+03
1.372106e+03,3.600602e+03
1.383677e+03,3.597265e+03
1.395247e+03,3.540963e+03
1.406818e+03,3.518365e+03
1.418389e+03,3.533619e+03
1.429960e+03,3.482325e+03
1.441531e+03,3.482362e+03
1.453101e+03,3.470941e+03
1.464672e+03,3.415980e+03
1.476243e+03,3.413970e+03
1.487814e+03,3.373535e+03
1.499385e+03,3.375909e+03
1.510955e+03,3.338717e+03
1.522526e+03,3.335337e+03
1.534097e+03,3.324485e+03
1.545668e+03,3.306907e+03
1.557239e+03,3.298687e+03
1.568809e+03,3.295007e+03
1.580380e+03,3.309710e+03
1.591951e+03,3.265806e+03
1.603522e+03,3.240283e+03
1.615093e+03,3.246623e+03
1.626663e+03,3.170839e+03
1.638234e+03,3.147132e+03
1.649805e+03,3.135205e+03
1.661376e+03,3.083246e+03
1.672947e+03,3.057578e+03
1.684517e+03,3.033070e+03
1.696088e+03,3.022331e+03
1.707659e+03,2.993613e+03
1.719230e+03,2.986679e+03
1.730801e+03,2.963198e+03
1.742371e+03,2.922415e+03
1.753942e+03,2.925536e+03
1.765513e+03,2.869743e+03
1.777084e+03,2.846809e+03
1.788655e+03,2.841210e+03
1.800225e+03,2.814183e+03
1.811796e+03,2.796259e+03
1.823367e+03,2.777423e+03
1.834938e+03,2.755029e+03
1.846509e+03,2.734095e+03
1.858079e+03,2.708274e+03
1.869650e+03,2.672910e+03
1.881221e+03,2.644817e+03
1.892792e+03,2.609543e+03
1.904363e+03,2.591006e+03
1.915933e+03,2.551877e+03
1.927504e+03,2.530833e+03
1.939075e+03,2.517516e+03
1.950646e+03,2.468975e+03
1.962217e+03,2.478406e+03
1.973787e+03,2.434988e+03
1.985358e+03,2.415608e+03
1.996929e+03,2.402421e+03
2.008500e+03,2.371784e+03
2.020071e+03,2.325962e+03
2.031641e+03,2.327647e+03
2.043212e+03,2.304392e+03
2.054783e+03,2.271072e+03
2.066354e+03,2.240248e+03
2.077925e+03,2.204658e+03
2.089496e+03,2.196575e+03
2.101066e+03,2.179615e+03
2.112637e+03,2.141266e+03
2.124208e+03,2.124887e+03
2.135779e+03,2.096169e+03
2.147350e+03,2.054315e+03
2.158920e+03,2.051241e+03
2.170491e+03,2.022511e+03
2.182062e+03,2.000271e+03
2.193633e+03,1.980010e+03
2.205204e+03,1.961843e+03
2.216774e+03,1.934598e+03
2.228345e+03,1.896999e+03
2.239916e+03,1.898222e+03
2.251487e+03,1.891794e+03
2.263058e+03,1.857944e+03
2.274628e+03,1.829894e+03
2.286199e+03,1.808826e+03
2.297770e+03,1.797298e+03
2.309341e+03,1.769414e+03
2.320912e+03,1.743712e+03
2.332482e+03,1.732372e+03
2.344053e+03,1.717790e+03
2.355624e+03,1.679761e+03
2.367195e+03,1.676767e+03
2.378766e+03,1.655515e+03
2.390336e+03,1.623781e+03
2.401907e+03,1.638324e+03
2.413478e+03,1.598313e+03
2.425049e+03,1.571410e+03
2.436620e+03,1.548825e+03
2.448190e+03,1.522205e+03
2.459761e+03,1.534993e+03
2.471332e+03,1.511850e+03
2.482903e+03,1.505908e+03
2.494474e+03,1.487565e+03
2.506044e+03,1.463965e+03
2.517615e+03,1.458708e+03
2.529186e+03,1.450568e+03
2.540757e+03,1.422013e+03
2.552328e+03,1.429384e+03
2.563898e+03,1.415557e+03
2.575469e+03,1.392862e+03
2.587040e+03,1.376376e+03
2.598611e+03,1.383792e+03
2.610182e+03,1.354984e+03
2.621752e+03,1.358684e+03
2.633323e+03,1.329215e+03
2.644894e+03,1.319261e+03
2.656465e+03,1.321665e+03
2.668036e+03,1.288895e+03
2.679606e+03,1.306042e+03
2.691177e+03,1.280270e+03
2.702748e+03,1.262914e+03
2.714319e+03,1.274147e+03
2.725890e+03,1.246789e+03
2.737460e+03,1.219581e+03
2.749031e+03,1.232786e+03
2.760602e+03,1.218817e+03
2.772173e+03,1.204050e+03
2.783744e+03,1.201197e+03
2.795314e+03,1.180881e+03
2.806885e+03,1.169184e+03
2.818456e+03,1.162655e+03
2.830027e+03,1.158652e+03
2.841598e+03,1.172258e+03
2.853168e+03,1.144875e+03
2.864739e+03,1.139961e+03
2.876310e+03,1.161048e+03
2.887881e+03,1.170736e+03
2.899452e+03,1.140579e+03
2.911022e+03,1.139493e+03
2.922593e+03,1.117442e+03
2.934164e+03,1.117271e+03
2.945735e+03,1.087106e+03
2.957306e+03,1.129352e+03
2.968876e+03,1.082092e+03
2.980447e+03,1.070054e+03
2.992018e+03,1.054073e+03
3.003589e+03,1.054657e+03
3.015160e+03,1.038170e+03
3.026730e+03,9.960372e+02
3.038301e+03,1.051103e+03
3.049872e+03,1.033021e+03
3.061443e+03,1.025701e+03
3.073014e+03,1.016249e+03
3.084584e+03,9.940060e+02
3.096155e+03,1.022953e+03
3.107726e+03,1.003450e+03
3.119297e+03,1.020664e+03
3.130868e+03,9.674955e+02
3.142438e+03,1.001676e+03
3.154009e+03,9.766106e+02
3.165580e+03,9.815876e+02
3.177151e+03,9.882606e+02
3.188722e+03,9.514785e+02
3.200292e+03,1.054805e+03
3.211863e+03,0.000000e+00
3.223434e+03,0.000000e+00
3.235005e+03,0.000000e+00
3.246576e+03,0.000000e+00
3.258146e+03,0.000000e+00
3.269717e+03,0.000000e+00
3.281288e+03,0.000000e+00
3.292859e+03,0.000000e+00
3.304430e+03,0.000000e+00
3.316000e+03,0.000000e+00
3.327571e+03,0.000000e+00
3.339142e+03,0.000000e+00
3.350713e+03,0.000000e+00
3.362284e+03,0.000000e+00
3.373854e+03,0.000000e+00
3.385425e+03,0.000000e+00
3.396996e+03,0.000000e+00
3.408567e+03,0.000000e+00
3.420138e+03,0.000000e+00
3.431708e+03,0.000000e+00
3.443279e+03,0.000000e+00
3.454850e+03,0.000000e+00
3.466421e+03,0.000000e+00
3.477992e+03,0.000000e+00
3.489563e+03,0.000000e+00
3.500169e+03,0.000000e+00

File: black fibre6.CSV
9.931763e+01,0.000000e+00
1.108884e+02,0.000000e+00
1.224592e+02,0.000000e+00
1.340300e+02,0.000000e+00
1.456008e+02,0.000000e+00
1.571716e+02,0.000000e+00
1.687424e+02,0.000000e+00
1.803132e+02,0.000000e+00
1.918840e+02,0.000000e+00
2.034548e+02,5.323715e+03
2.150256e+02,5.285436e+03
2.265964e+02,5.268633e+03
2.381673e+02,5.258761e+03
2.497381e+02,5.228594e+03
2.613088e+02,5.189040e+03
2.728796e+02,5.160189e+03
2.844504e+02,5.149973e+03
2.960212e+02,5.091642e+03
3.075920e+02,5.068731e+03
3.191628e+02,5.059818e+03
3.307336e+02,5.035603e+03
3.423044e+02,4.996406e+03
3.538752e+02,4.929319e+03
3.654461e+02,4.904800e+03
3.770169e+02,4.889022e+03
3.885877e+02,4.822033e+03
4.001585e+02,4.779388e+03
4.117293e+02,4.748861e+03
4.233001e+02,4.697833e+03
4.348709e+02,4.659817e+03
4.464417e+02,4.611517e+03
4.580125e+02,4.603934e+03
4.695833e+02,4.533596e+03
4.811541e+02,4.505308e+03
4.927249e+02,4.457435e+03
5.042957e+02,4.419370e+03
5.158665e+02,4.385491e+03
5.274373e+02,4.341752e+03
5.390081e+02,4.307411e+03
5.505789e+02,4.258691e+03
5.621497e+02,4.220368e+03
5.737205e+02,4.204542e+03
5.852913e+02,4.155139e+03
5.968621e+02,4.135360e+03
6.084329e+02,4.104044e+03
6.200037e+02,4.058051e+03
6.315745e+02,4.037170e+03
6.431453e+02,3.974534e+03
6.547161e+02,3.964552e+03
6.662869e+02,3.934696e+03
6.778577e+02,3.875361e+03
6.894285e+02,3.857966e+03
7.009993e+02,3.836807e+03
7.125701e+02,3.786456e+03
7.241409e+02,3.762155e+03
7.357117e+02,3.736262e+03
7.472825e+02,3.720185e+03
7.588533e+02,3.688832e+03
7.704241e+02,3.646258e+03
7.819949e+02,3.610114e+03
7.935657e+02,3.614315e+03
8.051365e+02,3.577747e+03
8.167073e+02,3.538395e+03
8.282781e+02,3.505453e+03
8.398489e+02,3.468271e+03
8.514197e+02,3.461268e+03
8.629905e+02,3.419110e+03
8.745613e+02,3.400322e+03
8.861321e+02,3.389916e+03
8.977029e+02,3.355541e+03
9.092737e+02,3.317124e+03
9.208445e+02,3.302969e+03
9.324153e+02,3.267579e+03
9.439861e+02,3.222274e+03
9.555569e+02,3.213124e+03
9.671277e+02,3.195220e+03
9.786985e+02,3.181059e+03
9.902693e+02,3.161611e+03
1.001840e+03,3.123029e+03
1.013411e+03,3.109593e+03
1.024982e+03,3.081578e+03
1.036552e+03,3.069142e+03
1.048123e+03,3.050275e+03
1.059694e+03,3.023078e+03
1.071265e+03,3.018385e+03
1.082836e+03,3.011609e+03
1.094406e+03,2.999820e+03
1.105977e+03,2.970709e+03
1.117548e+03,2.964983e+03
1.129119e+03,2.921766e+03
1.140690e+03,2.913591e+03
1.152261e+03,2.906247e+03
1.163831e+03,2.880352e+03
1.175402e+03,2.851725e+03
1.186973e+03,2.807600e+03
1.198544e+03,2.809930e+03
1.210115e+03,2.799102e+03
1.221685e+03,2.773015e+03
1.233256e+03,2.734423e+03
1.244827e+03,2.724535e+03
1.256398e+03,2.717825e+03
1.267969e+03,2.694941e+03
1.279539e+03,2.692573e+03
1.291110e+03,2.687333e+03
1.302681e+03,2.669337e+03
1.314252e+03,2.661720e+03
1.325823e+03,2.651118e+03
1.337393e+03,2.640230e+03
1.348964e+03,2.599075e+03
1.360535e+03,2.572405e+03
1.372106e+03,2.555865e+03
1.383677e+03,2.527934e+03
1.395247e+03,2.507012e+03
1.406818e+03,2.484469e+03
1.418389e+03,2.480347e+03
1.429960e+03,2.454812e+03
1.441531e+03,2.439225e+03
1.453101e+03,2.416986e+03
1.464672e+03,2.412738e+03
1.476243e+03,2.392129e+03
1.487814e+03,2.366672e+03
1.499385e+03,2.341357e+03
1.510955e+03,2.326195e+03
1.522526e+03,2.305850e+03
1.534097e+03,2.293446e+03
1.545668e+03,2.275663e+03
1.557239e+03,2.284711e+03
1.568809e+03,2.276096e+03
1.580380e+03,2.264803e+03
1.591951e+03,2.234177e+03
1.603522e+03,2.222695e+03
1.615093e+03,2.209425e+03
1.626663e+03,2.171819e+03
1.638234e+03,2.133737e+03
1.649805e+03,2.113730e+03
1.661376e+03,2.101885e+03
1.672947e+03,2.085938e+03
1.684517e+03,2.058916e+03
1.696088e+03,2.048631e+03
1.707659e+03,2.042084e+03
1.719230e+03,1.998876e+03
1.730801e+03,2.004674e+03
1.742371e+03,1.967215e+03
1.753942e+03,1.953043e+03
1.765513e+03,1.938645e+03
1.777084e+03,1.919030e+03
1.788655e+03,1.896279e+03
1.800225e+03,1.893650e+03
1.811796e+03,1.864658e+03
1.823367e+03,1.853175e+03
1.834938e+03,1.858424e+03
1.846509e+03,1.825301e+03
1.858079e+03,1.799208e+03
1.869650e+03,1.783124e+03
1.881221e+03,1.779527e+03
1.892792e+03,1.738061e+03
1.904363e+03,1.722950e+03
1.915933e+03,1.716648e+03
1.927504e+03,1.701156e+03
1.939075e+03,1.682187e+03
1.950646e+03,1.667160e+03
1.962217e+03,1.640938e+03
1.973787e+03,1.648408e+03
1.985358e+03,1.609320e+03
1.996929e+03,1.587535e+03
2.008500e+03,1.576238e+03
2.020071e+03,1.561853e+03
2.031641e+03,1.530387e+03
2.043212e+03,1.503874e+03
2.054783e+03,1.529116e+03
2.066354e+03,1.494081e+03
2.077925e+03,1.479183e+03
2.089496e+03,1.455288e+03
2.101066e+03,1.433123e+03
2.112637e+03,1.434597e+03
2.124208e+03,1.410746e+03
2.135779e+03,1.408681e+03
2.147350e+03,1.374285e+03
2.158920e+03,1.381287e+03
2.170491e+03,1.366224e+03
2.182062e+03,1.345018e+03
2.193633e+03,1.329623e+03
2.205204e+03,1.310929e+03
2.216774e+03,1.308570e+03
2.228345e+03,1.275307e+03
2.239916e+03,1.280511e+03
2.251487e+03,1.255202e+03
2.263058e+03,1.220527e+03
2.274628e+03,1.235534e+03
2.286199e+03,1.202940e+03
2.297770e+03,1.206198e+03
2.309341e+03,1.183400e+03
2.320912e+03,1.175510e+03
2.332482e+03,1.154622e+03
2.344053e+03,1.147788e+03
2.355624e+03,1.138931e+03
2.367195e+03,1.120699e+03
2.378766e+03,1.118574e+03
2.390336e+03,1.102167e+03
2.401907e+03,1.091117e+03
2.413478e+03,1.084598e+03
2.425049e+03,1.078242e+03
2.436620e+03,1.054787e+03
2.448190e+03,1.053113e+03
2.459761e+03,1.034018e+03
2.471332e+03,1.041429e+03
2.482903e+03,1.020363e+03
2.494474e+03,1.010923e+03
2.506044e+03,9.938358e+02
2.517615e+03,1.012756e+03
2.529186e+03,9.981523e+02
2.540757e+03,9.867838e+02
2.552328e+03,9.914407e+02
2.563898e+03,9.702048e+02
2.575469e+03,9.668936e+02
2.587040e+03,9.480377e+02
2.598611e+03,9.406915e+02
2.610182e+03,9.355383e+02
2.621752e+03,9.267974e+02
2.633323e+03,9.059766e+02
2.644894e+03,9.149560e+02
2.656465e+03,9.242672e+02
2.668036e+03,9.190562e+02
2.679606e+03,9.021740e+02
2.691177e+03,9.039625e+02
2.702748e+03,8.898201e+02
2.714319e+03,8.876432e+02
2.725890e+03,8.642802e+02
2.737460e+03,8.845303e+02
2.749031e+03,8.557416e+02
2.760602e+03,8.635436e+02
2.772173e+03,8.440801e+02
2.783744e+03,8.637784e+02
2.795314e+03,8.390621e+02
2.806885e+03,8.411291e+02
2.818456e+03,8.474610e+02
2.830027e+03,8.586629e+02
2.841598e+03,8.231088e+02
2.853168e+03,8.431461e+02
2.864739e+03,8.419164e+02
2.876310e+03,8.457599e+02
2.887881e+03,8.299494e+02
2.899452e+03,8.493711e+02
2.911022e+03,8.291598e+02
2.922593e+03,8.208820e+02
2.934164e+03,8.187708e+02
2.945735e+03,8.049778e+02
2.957306e+03,8.210480e+02
2.968876e+03,7.749832e+02
2.980447e+03,7.806591e+02
2.992018e+03,7.777435e+02
3.003589e+03,7.648179e+02
3.015160e+03,7.531990e+02
3.026730e+03,7.525815e+02
3.038301e+03,7.726399e+02
3.049872e+03,7.408253e+02
3.061443e+03,7.460018e+02
3.073014e+03,7.530231e+02
3.084584e+03,7.709704e+02
3.096155e+03,7.747164e+02
3.107726e+03,8.046301e+02
3.119297e+03,7.591702e+02
3.130868e+03,7.573392e+02
3.142438e+03,7.487401e+02
3.154009e+03,7.788768e+02
3.165580e+03,7.690636e+02
3.177151e+03,7.514078e+02
3.188722e+03,7.720673e+02
3.200292e+03,7.981710e+02
3.211863e+03,0.000000e+00
3.223434e+03,0.000000e+00
3.235005e+03,0.000000e+00
3.246576e+03,0.000000e+00
3.258146e+03,0.000000e+00
3.269717e+03,0.000000e+00
3.281288e+03,0.000000e+00
3.292859e+03,0.000000e+00
3.304430e+03,0.000000e+00
3.316000e+03,0.000000e+00
3.327571e+03,0.000000e+00
3.339142e+03,0.000000e+00
3.350713e+03,0.000000e+00
3.362284e+03,0.000000e+00
3.373854e+03,0.000000e+00
3.385425e+03,0.000000e+00
3.396996e+03,0.000000e+00
3.408567e+03,0.000000e+00
3.420138e+03,0.000000e+00
3.431708e+03,0.000000e+00
3.443279e+03,0.000000e+00
3.454850e+03,0.000000e+00
3.466421e+03,0.000000e+00
3.477992e+03,0.000000e+00
3.489563e+03,0.000000e+00
3.500169e+03,0.000000e+00

File: black fibre7.CSV
9.931763e+01,0.000000e+00
1.108884e+02,0.000000e+00
1.224592e+02,0.000000e+00
1.340300e+02,0.000000e+00
1.456008e+02,0.000000e+00
1.571716e+02,0.000000e+00
1.687424e+02,0.000000e+00
1.803132e+02,0.000000e+00
1.918840e+02,0.000000e+00
2.034548e+02,1.083032e+03
2.150256e+02,1.077706e+03
2.265964e+02,1.073158e+03
2.381673e+02,1.078712e+03
2.497381e+02,1.073977e+03
2.613088e+02,1.067521e+03
2.728796e+02,1.064444e+03
2.844504e+02,1.060776e+03
2.960212e+02,1.056807e+03
3.075920e+02,1.062164e+03
3.191628e+02,1.043770e+03
3.307336e+02,1.056542e+03
3.423044e+02,1.050380e+03
3.538752e+02,1.036625e+03
3.654461e+02,1.030386e+03
3.770169e+02,1.056219e+03
3.885877e+02,1.028803e+03
4.001585e+02,1.012982e+03
4.117293e+02,1.018670e+03
4.233001e+02,1.010817e+03
4.348709e+02,1.020079e+03
4.464417e+02,1.000502e+03
4.580125e+02,1.007572e+03
4.695833e+02,9.835748e+02
4.811541e+02,9.910998e+02
4.927249e+02,9.924231e+02
5.042957e+02,9.882488e+02
5.158665e+02,9.854210e+02
5.274373e+02,9.710980e+02
5.390081e+02,9.725165e+02
5.505789e+02,9.627900e+02
5.621497e+02,9.529932e+02
5.737205e+02,9.545227e+02
5.852913e+02,9.507542e+02
5.968621e+02,9.505900e+02
6.084329e+02,9.477166e+02
6.200037e+02,9.470892e+02
6.315745e+02,9.390916e+02
6.431453e+02,9.318365e+02
6.547161e+02,9.295789e+02
6.662869e+02,9.260640e+02
6.778577e+02,9.159534e+02
6.894285e+02,9.104766e+02
7.009993e+02,9.092356e+02
7.125701e+02,9.095031e+02
7.241409e+02,9.036912e+02
7.357117e+02,8.987164e+02
7.472825e+02,8.948826e+02
7.588533e+02,8.905713e+02
7.704241e+02,8.874910e+02
7.819949e+02,8.953295e+02
7.935657e+02,8.784534e+02
8.051365e+02,8.741147e+02
8.167073e+02,8.816946e+02
8.282781e+02,8.843688e+02
8.398489e+02,8.686243e+02
8.514197e+02,8.613089e+02
8.629905e+02,8.672360e+02
8.745613e+02,8.590369e+02
8.861321e+02,8.618953e+02
8.977029e+02,8.433406e+02
9.092737e+02,8.451772e+02
9.208445e+02,8.442157e+02
9.324153e+02,8.336835e+02
9.439861e+02,8.216713e+02
9.555569e+02,8.303997e+02
9.671277e+02,8.187487e+02
9.786985e+02,8.179539e+02
9.902693e+02,8.130090e+02
1.001840e+03,8.136935e+02
1.013411e+03,7.991878e+02
1.024982e+03,8.092029e+02
1.036552e+03,8.056590e+02
1.048123e+03,8.021777e+02
1.059694e+03,8.029972e+02
1.071265e+03,7.939592e+02
1.082836e+03,8.045016e+02
1.094406e+03,8.212717e+02
1.105977e+03,7.979562e+02
1.117548e+03,8.032723e+02
1.129119e+03,7.951018e+02
1.140690e+03,7.896707e+02
1.152261e+03,7.898259e+02
1.163831e+03,7.672689e+02
1.175402e+03,7.633503e+02
1.186973e+03,7.620253e+02
1.198544e+03,7.590848e+02
1.210115e+03,7.542011e+02
1.221685e+03,7.556257e+02
1.233256e+03,7.425102e+02
1.244827e+03,7.439680e+02
1.256398e+03,7.414108e+02
1.267969e+03,7.452167e+02
1.279539e+03,7.503525e+02
1.291110e+03,7.441680e+02
1.302681e+03,7.365428e+02
1.314252e+03,7.326829e+02
1.325823e+03,7.309080e+02
1.337393e+03,7.440266e+02
1.348964e+03,7.343221e+02
1.360535e+03,7.290399e+02
1.372106e+03,7.282286e+02
1.383677e+03,7.198286e+02
1.395247e+03,7.029183e+02
1.406818e+03,7.140118e+02
1.418389e+03,7.089635e+02
1.429960e+03,6.962482e+02
1.441531e+03,6.888503e+02
1.453101e+03,6.907096e+02
1.464672e+03,6.855369e+02
1.476243e+03,6.959651e+02
1.487814e+03,6.811698e+02
1.499385e+03,6.696038e+02
1.510955e+03,6.652348e+02
1.522526e+03,6.646652e+02
1.534097e+03,6.650035e+02
1.545668e+03,6.643332e+02
1.557239e+03,6.626840e+02
1.568809e+03,6.629002e+02
1.580380e+03,6.533943e+02
1.591951e+03,6.562444e+02
1.603522e+03,6.503074e+02
1.615093e+03,6.462763e+02
1.626663e+03,6.306725e+02
1.638234e+03,6.289250e+02
1.649805e+03,6.193055e+02
1.661376e+03,6.186434e+02
1.672947e+03,6.159958e+02
1.684517e+03,6.151709e+02
1.696088e+03,6.085354e+02
1.707659e+03,6.065345e+02
1.719230e+03,6.106940e+02
1.730801e+03,5.981459e+02
1.742371e+03,6.015371e+02
1.753942e+03,5.971934e+02
1.765513e+03,5.899855e+02
1.777084e+03,5.893353e+02
1.788655e+03,5.828458e+02
1.800225e+03,5.802092e+02
1.811796e+03,5.676232e+02
1.823367e+03,5.606717e+02
1.834938e+03,5.644461e+02
1.846509e+03,5.684310e+02
1.858079e+03,5.551951e+02
1.869650e+03,5.417127e+02
1.881221e+03,5.369418e+02
1.892792e+03,5.334207e+02
1.904363e+03,5.271222e+02
1.915933e+03,5.324858e+02
1.927504e+03,5.252955e+02
1.939075e+03,5.219594e+02
1.950646e+03,5.227551e+02
1.962217e+03,5.190541e+02
1.973787e+03,5.044106e+02
1.985358e+03,5.068185e+02
1.996929e+03,4.981820e+02
2.008500e+03,4.928102e+02
2.020071e+03,4.921024e+02
2.031641e+03,4.825055e+02
2.043212e+03,4.847858e+02
2.054783e+03,4.730799e+02
2.066354e+03,4.723650e+02
2.077925e+03,4.660265e+02
2.089496e+03,4.627299e+02
2.101066e+03,4.626204e+02
2.112637e+03,4.611685e+02
2.124208e+03,4.485256e+02
2.135779e+03,4.500209e+02
2.147350e+03,4.283823e+02
2.158920e+03,4.431713e+02
2.170491e+03,4.439093e+02
2.182062e+03,4.338520e+02
2.193633e+03,4.266269e+02
2.205204e+03,4.254901e+02
2.216774e+03,4.197436e+02
2.228345e+03,4.206425e+02
2.239916e+03,4.125541e+02
2.251487e+03,4.020635e+02
2.263058e+03,4.021047e+02
2.274628e+03,4.043070e+02
2.286199e+03,4.026703e+02
2.297770e+03,3.951294e+02
2.309341e+03,3.908196e+02
2.320912e+03,3.852515e+02
2.332482e+03,3.888807e+02
2.344053e+03,3.771711e+02
2.355624e+03,3.685626e+02
2.367195e+03,3.649088e+02
2.378766e+03,3.739013e+02
2.390336e+03,3.657119e+02
2.401907e+03,3.629770e+02
2.413478e+03,3.605758e+02
2.425049e+03,3.469439e+02
2.436620e+03,3.608456e+02
2.448190e+03,3.483618e+02
2.459761e+03,3.432531e+02
2.471332e+03,3.391004e+02
2.482903e+03,3.444879e+02
2.494474e+03,3.410403e+02
2.506044e+03,3.332408e+02
2.517615e+03,3.370865e+02
2.529186e+03,3.317048e+02
2.540757e+03,3.271261e+02
2.552328e+03,3.388754e+02
2.563898e+03,3.230370e+02
2.575469e+03,3.329109e+02
2.587040e+03,3.260673e+02
2.598611e+03,3.127361e+02
2.610182e+03,3.163709e+02
2.621752e+03,3.086406e+02
2.633323e+03,3.055693e+02
2.644894e+03,3.095607e+02
2.656465e+03,3.002423e+02
2.668036e+03,3.094869e+02
2.679606e+03,2.979682e+02
2.691177e+03,3.018708e+02
2.702748e+03,2.999850e+02
2.714319e+03,3.048995e+02
2.725890e+03,2.884303e+02
2.737460e+03,2.877436e+02
2.749031e+03,2.801133e+02
2.760602e+03,2.934542e+02
2.772173e+03,2.867917e+02
2.783744e+03,2.765404e+02
2.795314e+03,2.841845e+02
2.806885e+03,2.840932e+02
2.818456e+03,2.870815e+02
2.830027e+03,2.927057e+02
2.841598e+03,2.777213e+02
2.853168e+03,2.770905e+02
2.864739e+03,3.044417e+02
2.876310e+03,3.101720e+02
2.887881e+03,4.650813e+02
2.899452e+03,3.234512e+02
2.911022e+03,3.140501e+02
2.922593e+03,2.875969e+02
2.934164e+03,2.957384e+02
2.945735e+03,2.863026e+02
2.957306e+03,3.206694e+02
2.968876e+03,2.885149e+02
2.980447e+03,2.532557e+02
2.992018e+03,2.723234e+02
3.003589e+03,2.465598e+02
3.015160e+03,2.412643e+02
3.026730e+03,2.598067e+02
3.038301e+03,2.599770e+02
3.049872e+03,2.494605e+02
3.061443e+03,2.563846e+02
3.073014e+03,2.489856e+02
3.084584e+03,2.621700e+02
3.096155e+03,2.423606e+02
3.107726e+03,2.479487e+02
3.119297e+03,2.490758e+02
3.130868e+03,2.639408e+02
3.142438e+03,2.497404e+02
3.154009e+03,2.859748e+02
3.165580e+03,2.626930e+02
3.177151e+03,2.439261e+02
3.188722e+03,2.210688e+02
3.200292e+03,2.825100e+02
3.211863e+03,0.000000e+00
3.223434e+03,0.000000e+00
3.235005e+03,0.000000e+00
3.246576e+03,0.000000e+00
3.258146e+03,0.000000e+00
3.269717e+03,0.000000e+00
3.281288e+03,0.000000e+00
3.292859e+03,0.000000e+00
3.304430e+03,0.000000e+00
3.316000e+03,0.000000e+00
3.327571e+03,0.000000e+00
3.339142e+03,0.000000e+00
3.350713e+03,0.000000e+00
3.362284e+03,0.000000e+00
3.373854e+03,0.000000e+00
3.385425e+03,0.000000e+00
3.396996e+03,0.000000e+00
3.408567e+03,0.000000e+00
3.420138e+03,0.000000e+00
3.431708e+03,0.000000e+00
3.443279e+03,0.000000e+00
3.454850e+03,0.000000e+00
3.466421e+03,0.000000e+00
3.477992e+03,0.000000e+00
3.489563e+03,0.000000e+00
3.500169e+03,0.000000e+00