Folder: Taff_Bargoed_microplastics_data/RAMAN_data/12022024_r1

Note: README.md
# Taff_Bargoed_microplastics_data

File: black fibre1.CSV
9.931763e+01,0.000000e+00
1.108884e+02,0.000000e+00
1.224592e+02,0.000000e+00
1.340300e+02,0.000000e+00
1.456008e+02,0.000000e+00
1.571716e+02,0.000000e+00
1.687424e+02,0.000000e+00
1.803132e+02,0.000000e+00
1.918840e+02,0.000000e+00
2.034548e+02,3.341776e+02
2.150256e+02,3.362087e+02
2.265964e+02,3.327999e+02
2.381673e+02,3.412715e+02
2.497381e+02,3.318354e+02
2.613088e+02,3.297959e+02
2.728796e+02,3.301619e+02
2.844504e+02,3.295473e+02
2.960212e+02,3.276783e+02
3.075920e+02,3.370302e+02
3.191628e+02,3.342049e+02
3.307336e+02,3.361208e+02
3.423044e+02,3.377043e+02
3.538752e+02,3.321294e+02
3.654461e+02,3.320124e+02
3.770169e+02,3.587337e+02
3.885877e+02,3.234928e+02
4.001585e+02,3.176007e+02
4.117293e+02,3.169068e+02
4.233001e+02,3.159096e+02
4.348709e+02,3.327416e+02
4.464417e+02,3.213226e+02
4.580125e+02,3.236743e+02
4.695833e+02,3.041762e+02
4.811541e+02,3.090287e+02
4.927249e+02,3.077887e+02
5.042957e+02,2.996422e+02
5.158665e+02,3.065832e+02
5.274373e+02,2.953434e+02
5.390081e+02,2.918082e+02
5.505789e+02,2.898094e+02
5.621497e+02,2.904937e+02
5.737205e+02,2.878838e+02
5.852913e+02,2.794849e+02
5.968621e+02,2.824689e+02
6.084329e+02,2.860646e+02
6.200037e+02,2.784721e+02
6.315745e+02,2.787911e+02
6.431453e+02,2.755726e+02
6.547161e+02,2.769896e+02
6.662869e+02,2.708222e+02
6.778577e+02,2.709446e+02
6.894285e+02,2.729331e+02
7.009993e+02,2.670212e+02
7.125701e+02,2.670199e+02
7.241409e+02,2.670992e+02
7.357117e+02,2.669417e+02
7.472825e+02,2.551828e+02
7.588533e+02,2.554568e+02
7.704241e+02,2.543306e+02
7.819949e+02,2.584386e+02
7.935657e+02,2.544942e+02
8.051365e+02,2.599929e+02
8.167073e+02,2.538615e+02
8.282781e+02,2.535041e+02
8.398489e+02,2.478172e+02
8.514197e+02,2.507334e+02
8.629905e+02,2.484427e+02
8.745613e+02,2.532442e+02
8.861321e+02,2.585602e+02
8.977029e+02,2.486494e+02
9.092737e+02,2.475013e+02
9.208445e+02,2.440971e+02
9.324153e+02,2.395663e+02
9.439861e+02,2.363103e+02
9.555569e+02,2.390335e+02
9.671277e+02,2.406543e+02
9.786985e+02,2.410390e+02
9.902693e+02,2.447631e+02
1.001840e+03,2.390631e+02
1.013411e+03,2.335516e+02
1.024982e+03,2.386856e+02
1.036552e+03,2.413878e+02
1.048123e+03,2.413519e+02
1.059694e+03,2.434581e+02
1.071265e+03,2.476124e+02
1.082836e+03,2.549174e+02
1.094406e+03,2.954269e+02
1.105977e+03,2.623240e+02
1.117548e+03,2.734991e+02
1.129119e+03,2.539737e+02
1.140690e+03,2.405420e+02
1.152261e+03,2.472222e+02
1.163831e+03,2.317509e+02
1.175402e+03,2.240209e+02
1.186973e+03,2.230385e+02
1.198544e+03,2.250661e+02
1.210115e+03,2.218343e+02
1.221685e+03,2.258194e+02
1.233256e+03,2.266673e+02
1.244827e+03,2.272908e+02
1.256398e+03,2.246502e+02
1.267969e+03,2.257586e+02
1.279539e+03,2.302923e+02
1.291110e+03,2.342052e+02
1.302681e+03,2.265448e+02
1.314252e+03,2.277552e+02
1.325823e+03,2.348312e+02
1.337393e+03,2.414490e+02
1.348964e+03,2.318525e+02
1.360535e+03,2.374563e+02
1.372106e+03,2.421114e+02
1.383677e+03,2.405041e+02
1.395247e+03,2.262453e+02
1.406818e+03,2.267456e+02
1.418389e+03,2.213219e+02
1.429960e+03,2.195882e+02
1.441531e+03,2.188431e+02
1.453101e+03,2.217248e+02
1.464672e+03,2.231625e+02
1.476243e+03,2.211164e+02
1.487814e+03,2.099900e+02
1.499385e+03,2.091646e+02
1.510955e+03,2.107252e+02
1.522526e+03,2.074206e+02
1.534097e+03,2.064233e+02
1.545668e+03,2.039449e+02
1.557239e+03,2.034727e+02
1.568809e+03,2.076622e+02
1.580380e+03,2.022002e+02
1.591951e+03,2.043046e+02
1.603522e+03,2.057913e+02
1.615093e+03,2.029389e+02
1.626663e+03,1.969104e+02
1.638234e+03,1.957840e+02
1.649805e+03,1.923597e+02
1.661376e+03,1.962840e+02
1.672947e+03,1.943672e+02
1.684517e+03,1.894929e+02
1.696088e+03,1.898269e+02
1.707659e+03,1.899491e+02
1.719230e+03,1.882139e+02
1.730801e+03,1.875412e+02
1.742371e+03,1.831879e+02
1.753942e+03,1.837616e+02
1.765513e+03,1.847677e+02
1.777084e+03,1.818012e+02
1.788655e+03,1.861821e+02
1.800225e+03,1.814786e+02
1.811796e+03,1.842178e+02
1.823367e+03,1.782824e+02
1.834938e+03,1.790469e+02
1.846509e+03,1.724804e+02
1.858079e+03,1.716542e+02
1.869650e+03,1.706438e+02
1.881221e+03,1.695032e+02
1.892792e+03,1.687225e+02
1.904363e+03,1.692689e+02
1.915933e+03,1.626755e+02
1.927504e+03,1.646134e+02
1.939075e+03,1.623799e+02
1.950646e+03,1.639019e+02
1.962217e+03,1.636664e+02
1.973787e+03,1.617651e+02
1.985358e+03,1.577541e+02
1.996929e+03,1.519177e+02
2.008500e+03,1.602984e+02
2.020071e+03,1.546422e+02
2.031641e+03,1.515652e+02
2.043212e+03,1.526402e+02
2.054783e+03,1.550311e+02
2.066354e+03,1.533096e+02
2.077925e+03,1.513926e+02
2.089496e+03,1.510822e+02
2.101066e+03,1.430298e+02
2.112637e+03,1.464791e+02
2.124208e+03,1.438071e+02
2.135779e+03,1.429041e+02
2.147350e+03,1.380511e+02
2.158920e+03,1.431307e+02
2.170491e+03,1.347243e+02
2.182062e+03,1.428629e+02
2.193633e+03,1.400031e+02
2.205204e+03,1.405551e+02
2.216774e+03,1.368561e+02
2.228345e+03,1.286506e+02
2.239916e+03,1.353903e+02
2.251487e+03,1.317144e+02
2.263058e+03,1.310609e+02
2.274628e+03,1.354733e+02
2.286199e+03,1.290270e+02
2.297770e+03,1.346498e+02
2.309341e+03,1.284350e+02
2.320912e+03,1.280355e+02
2.332482e+03,1.301199e+02
2.344053e+03,1.265256e+02
2.355624e+03,1.243963e+02
2.367195e+03,1.185774e+02
2.378766e+03,1.224020e+02
2.390336e+03,1.251120e+02
2.401907e+03,1.251609e+02
2.413478e+03,1.137517e+02
2.425049e+03,1.189048e+02
2.436620e+03,1.218100e+02
2.448190e+03,1.148806e+02
2.459761e+03,1.185251e+02
2.471332e+03,1.116648e+02
2.482903e+03,1.187848e+02
2.494474e+03,1.163198e+02
2.506044e+03,1.222246e+02
2.517615e+03,1.186393e+02
2.529186e+03,1.083075e+02
2.540757e+03,1.154542e+02
2.552328e+03,1.194802e+02
2.563898e+03,1.220851e+02
2.575469e+03,1.199643e+02
2.587040e+03,1.153377e+02
2.598611e+03,1.124931e+02
2.610182e+03,1.109016e+02
2.621752e+03,1.123991e+02
2.633323e+03,1.111059e+02
2.644894e+03,1.091541e+02
2.656465e+03,1.137797e+02
2.668036e+03,1.119020e+02
2.679606e+03,1.109791e+02
2.691177e+03,1.172639e+02
2.702748e+03,1.125649e+02
2.714319e+03,1.175500e+02
2.725890e+03,1.087859e+02
2.737460e+03,1.124352e+02
2.749031e+03,1.086771e+02
2.760602e+03,1.194577e+02
2.772173e+03,1.240280e+02
2.783744e+03,1.122971e+02
2.795314e+03,1.077822e+02
2.806885e+03,1.054357e+02
2.818456e+03,1.144048e+02
2.830027e+03,1.222670e+02
2.841598e+03,1.253676e+02
2.853168e+03,1.301861e+02
2.864739e+03,1.301956e+02
2.876310e+03,1.501236e+02
2.887881e+03,1.618806e+02
2.899452e+03,1.756227e+02
2.911022e+03,1.599902e+02
2.922593e+03,1.392524e+02
2.934164e+03,1.431320e+02
2.945735e+03,1.311625e+02
2.957306e+03,1.649245e+02
2.968876e+03,1.357243e+02
2.980447e+03,1.075933e+02
2.992018e+03,1.092005e+02
3.003589e+03,1.047803e+02
3.015160e+03,9.693200e+01
3.026730e+03,1.032646e+02
3.038301e+03,9.915797e+01
3.049872e+03,9.754493e+01
3.061443e+03,9.865166e+01
3.073014e+03,9.638713e+01
3.084584e+03,1.082880e+02
3.096155e+03,1.193959e+02
3.107726e+03,1.204262e+02
3.119297e+03,1.084321e+02
3.130868e+03,1.241106e+02
3.142438e+03,1.319616e+02
3.154009e+03,1.291163e+02
3.165580e+03,1.482583e+02
3.177151e+03,1.165962e+02
3.188722e+03,1.034500e+02
3.200292e+03,1.488847e+02
3.211863e+03,0.000000e+00
3.223434e+03,0.000000e+00
3.235005e+03,0.000000e+00
3.246576e+03,0.000000e+00
3.258146e+03,0.000000e+00
3.269717e+03,0.000000e+00
3.281288e+03,0.000000e+00
3.292859e+03,0.000000e+00
3.304430e+03,0.000000e+00
3.316000e+03,0.000000e+00
3.327571e+03,0.000000e+00
3.339142e+03,0.000000e+00
3.350713e+03,0.000000e+00
3.362284e+03,0.000000e+00
3.373854e+03,0.000000e+00
3.385425e+03,0.000000e+00
3.396996e+03,0.000000e+00
3.408567e+03,0.000000e+00
3.420138e+03,0.000000e+00
3.431708e+03,0.000000e+00
3.443279e+03,0.000000e+00
3.454850e+03,0.000000e+00
3.466421e+03,0.000000e+00
3.477992e+03,0.000000e+00
3.489563e+03,0.000000e+00
3.500169e+03,0.000000e+00

File: black fibre2.CSV
9.931763e+01,0.000000e+00
1.108884e+02,0.000000e+00
1.224592e+02,0.000000e+00
1.340300e+02,0.000000e+00
1.456008e+02,0.000000e+00
1.571716e+02,0.000000e+00
1.687424e+02,0.000000e+00
1.803132e+02,0.000000e+00
1.918840e+02,0.000000e+00
2.034548e+02,4.179136e+03
2.150256e+02,4.146490e+03
2.265964e+02,4.105420e+03
2.381673e+02,4.099243e+03
2.497381e+02,4.103937e+03
2.613088e+02,4.057211e+03
2.728796e+02,4.016209e+03
2.844504e+02,4.029106e+03
2.960212e+02,4.005454e+03
3.075920e+02,3.968425e+03
3.191628e+02,3.974540e+03
3.307336e+02,3.959262e+03
3.423044e+02,3.951084e+03
3.538752e+02,3.927120e+03
3.654461e+02,3.888700e+03
3.770169e+02,3.901478e+03
3.885877e+02,3.849563e+03
4.001585e+02,3.802673e+03
4.117293e+02,3.808809e+03
4.233001e+02,3.785214e+03
4.348709e+02,3.777640e+03
4.464417e+02,3.741780e+03
4.580125e+02,3.733728e+03
4.695833e+02,3.712293e+03
4.811541e+02,3.673370e+03
4.927249e+02,3.631012e+03
5.042957e+02,3.610567e+03
5.158665e+02,3.629409e+03
5.274373e+02,3.578793e+03
5.390081e+02,3.563089e+03
5.505789e+02,3.529016e+03
5.621497e+02,3.536378e+03
5.737205e+02,3.488026e+03
5.852913e+02,3.453110e+03
5.968621e+02,3.440419e+03
6.084329e+02,3.430858e+03
6.200037e+02,3.394351e+03
6.315745e+02,3.380018e+03
6.431453e+02,3.328394e+03
6.547161e+02,3.321444e+03
6.662869e+02,3.285620e+03
6.778577e+02,3.259183e+03
6.894285e+02,3.227816e+03
7.009993e+02,3.236251e+03
7.125701e+02,3.197531e+03
7.241409e+02,3.173125e+03
7.357117e+02,3.153374e+03
7.472825e+02,3.102284e+03
7.588533e+02,3.092169e+03
7.704241e+02,3.057994e+03
7.819949e+02,3.042438e+03
7.935657e+02,3.025161e+03
8.051365e+02,2.979955e+03
8.167073e+02,2.963661e+03
8.282781e+02,2.957495e+03
8.398489e+02,2.923915e+03
8.514197e+02,2.882617e+03
8.629905e+02,2.884382e+03
8.745613e+02,2.856282e+03
8.861321e+02,2.848098e+03
8.977029e+02,2.797499e+03
9.092737e+02,2.782527e+03
9.208445e+02,2.747964e+03
9.324153e+02,2.730537e+03
9.439861e+02,2.697148e+03
9.555569e+02,2.684216e+03
9.671277e+02,2.668663e+03
9.786985e+02,2.629039e+03
9.902693e+02,2.616885e+03
1.001840e+03,2.589169e+03
1.013411e+03,2.554573e+03
1.024982e+03,2.536149e+03
1.036552e+03,2.524618e+03
1.048123e+03,2.501057e+03
1.059694e+03,2.501444e+03
1.071265e+03,2.469001e+03
1.082836e+03,2.462934e+03
1.094406e+03,2.480328e+03
1.105977e+03,2.421666e+03
1.117548e+03,2.423049e+03
1.129119e+03,2.373837e+03
1.140690e+03,2.354072e+03
1.152261e+03,2.347346e+03
1.163831e+03,2.321066e+03
1.175402e+03,2.286396e+03
1.186973e+03,2.284984e+03
1.198544e+03,2.261555e+03
1.210115e+03,2.236673e+03
1.221685e+03,2.222713e+03
1.233256e+03,2.204858e+03
1.244827e+03,2.196909e+03
1.256398e+03,2.190182e+03
1.267969e+03,2.167018e+03
1.279539e+03,2.155356e+03
1.291110e+03,2.141869e+03
1.302681e+03,2.122757e+03
1.314252e+03,2.100399e+03
1.325823e+03,2.103086e+03
1.337393e+03,2.093306e+03
1.348964e+03,2.070310e+03
1.360535e+03,2.058493e+03
1.372106e+03,2.043024e+03
1.383677e+03,2.033426e+03
1.395247e+03,1.997689e+03
1.406818e+03,1.991580e+03
1.418389e+03,1.965350e+03
1.429960e+03,1.936185e+03
1.441531e+03,1.947639e+03
1.453101e+03,1.924946e+03
1.464672e+03,1.901755e+03
1.476243e+03,1.901028e+03
1.487814e+03,1.871216e+03
1.499385e+03,1.850748e+03
1.510955e+03,1.840549e+03
1.522526e+03,1.842339e+03
1.534097e+03,1.815752e+03
1.545668e+03,1.806339e+03
1.557239e+03,1.798622e+03
1.568809e+03,1.795981e+03
1.580380e+03,1.782661e+03
1.591951e+03,1.783480e+03
1.603522e+03,1.757166e+03
1.615093e+03,1.741682e+03
1.626663e+03,1.729344e+03
1.638234e+03,1.698289e+03
1.649805e+03,1.680939e+03
1.661376e+03,1.664962e+03
1.672947e+03,1.647600e+03
1.684517e+03,1.639000e+03
1.696088e+03,1.630460e+03
1.707659e+03,1.615113e+03
1.719230e+03,1.584674e+03
1.730801e+03,1.584390e+03
1.742371e+03,1.563804e+03
1.753942e+03,1.567390e+03
1.765513e+03,1.541434e+03
1.777084e+03,1.527157e+03
1.788655e+03,1.509235e+03
1.800225e+03,1.496393e+03
1.811796e+03,1.494346e+03
1.823367e+03,1.477030e+03
1.834938e+03,1.476219e+03
1.846509e+03,1.458473e+03
1.858079e+03,1.439787e+03
1.869650e+03,1.406177e+03
1.881221e+03,1.405942e+03
1.892792e+03,1.396521e+03
1.904363e+03,1.374911e+03
1.915933e+03,1.386612e+03
1.927504e+03,1.364582e+03
1.939075e+03,1.341515e+03
1.950646e+03,1.331563e+03
1.962217e+03,1.315400e+03
1.973787e+03,1.303380e+03
1.985358e+03,1.291777e+03
1.996929e+03,1.280565e+03
2.008500e+03,1.267727e+03
2.020071e+03,1.263997e+03
2.031641e+03,1.239495e+03
2.043212e+03,1.228252e+03
2.054783e+03,1.220509e+03
2.066354e+03,1.189238e+03
2.077925e+03,1.198265e+03
2.089496e+03,1.178383e+03
2.101066e+03,1.160778e+03
2.112637e+03,1.157632e+03
2.124208e+03,1.142744e+03
2.135779e+03,1.140253e+03
2.147350e+03,1.121416e+03
2.158920e+03,1.115574e+03
2.170491e+03,1.097540e+03
2.182062e+03,1.072562e+03
2.193633e+03,1.050712e+03
2.205204e+03,1.063190e+03
2.216774e+03,1.045391e+03
2.228345e+03,1.042223e+03
2.239916e+03,1.023830e+03
2.251487e+03,1.009345e+03
2.263058e+03,1.010694e+03
2.274628e+03,9.927844e+02
2.286199e+03,9.762990e+02
2.297770e+03,9.807708e+02
2.309341e+03,9.549666e+02
2.320912e+03,9.492841e+02
2.332482e+03,9.420129e+02
2.344053e+03,9.470258e+02
2.355624e+03,9.266677e+02
2.367195e+03,9.119848e+02
2.378766e+03,9.237372e+02
2.390336e+03,8.921007e+02
2.401907e+03,8.879645e+02
2.413478e+03,8.798010e+02
2.425049e+03,8.598307e+02
2.436620e+03,8.623525e+02
2.448190e+03,8.571610e+02
2.459761e+03,8.461324e+02
2.471332e+03,8.428381e+02
2.482903e+03,8.377787e+02
2.494474e+03,8.170295e+02
2.506044e+03,8.199509e+02
2.517615e+03,8.089963e+02
2.529186e+03,8.035121e+02
2.540757e+03,7.866194e+02
2.552328e+03,7.952394e+02
2.563898e+03,7.942958e+02
2.575469e+03,7.873185e+02
2.587040e+03,7.753906e+02
2.598611e+03,7.610060e+02
2.610182e+03,7.624810e+02
2.621752e+03,7.555156e+02
2.633323e+03,7.552031e+02
2.644894e+03,7.363195e+02
2.656465e+03,7.225158e+02
2.668036e+03,7.279474e+02
2.679606e+03,7.295742e+02
2.691177e+03,7.151125e+02
2.702748e+03,7.093871e+02
2.714319e+03,7.171100e+02
2.725890e+03,7.184410e+02
2.737460e+03,7.166412e+02
2.749031e+03,6.930208e+02
2.760602e+03,6.981793e+02
2.772173e+03,6.860615e+02
2.783744e+03,6.861199e+02
2.795314e+03,6.884694e+02
2.806885e+03,6.851298e+02
2.818456e+03,6.842443e+02
2.830027e+03,6.729750e+02
2.841598e+03,6.718328e+02
2.853168e+03,6.853677e+02
2.864739e+03,6.743503e+02
2.876310e+03,6.927624e+02
2.887881e+03,6.848847e+02
2.899452e+03,6.958544e+02
2.911022e+03,6.853527e+02
2.922593e+03,6.593925e+02
2.934164e+03,6.650283e+02
2.945735e+03,6.532571e+02
2.957306e+03,7.032692e+02
2.968876e+03,6.555205e+02
2.980447e+03,6.199576e+02
2.992018e+03,6.392331e+02
3.003589e+03,6.019478e+02
3.015160e+03,6.076804e+02
3.026730e+03,6.027178e+02
3.038301e+03,5.947469e+02
3.049872e+03,5.839675e+02
3.061443e+03,5.893333e+02
3.073014e+03,5.499083e+02
3.084584e+03,5.796169e+02
3.096155e+03,5.960829e+02
3.107726e+03,6.078714e+02
3.119297e+03,5.870084e+02
3.130868e+03,6.367603e+02
3.142438e+03,6.032927e+02
3.154009e+03,5.956310e+02
3.165580e+03,6.058430e+02
3.177151e+03,5.800370e+02
3.188722e+03,5.736952e+02
3.200292e+03,6.296061e+02
3.211863e+03,0.000000e+00
3.223434e+03,0.000000e+00
3.235005e+03,0.000000e+00
3.246576e+03,0.000000e+00
3.258146e+03,0.000000e+00
3.269717e+03,0.000000e+00
3.281288e+03,0.000000e+00
3.292859e+03,0.000000e+00
3.304430e+03,0.000000e+00
3.316000e+03,0.000000e+00
3.327571e+03,0.000000e+00
3.339142e+03,0.000000e+00
3.350713e+03,0.000000e+00
3.362284e+03,0.000000e+00
3.373854e+03,0.000000e+00
3.385425e+03,0.000000e+00
3.396996e+03,0.000000e+00
3.408567e+03,0.000000e+00
3.420138e+03,0.000000e+00
3.431708e+03,0.000000e+00
3.443279e+03,0.000000e+00
3.454850e+03,0.000000e+00
3.466421e+03,0.000000e+00
3.477992e+03,0.000000e+00
3.489563e+03,0.000000e+00
3.500169e+03,0.000000e+00

File: black fibre4.CSV
9.931763e+01,0.000000e+00
1.108884e+02,0.000000e+00
1.224592e+02,0.000000e+00
1.340300e+02,0.000000e+00
1.456008e+02,0.000000e+00
1.571716e+02,0.000000e+00
1.687424e+02,0.000000e+00
1.803132e+02,0.000000e+00
1.918840e+02,0.000000e+00
2.034548e+02,1.074320e+03
2.150256e+02,1.070991e+03
2.265964e+02,1.061675e+03
2.381673e+02,1.060413e+03
2.497381e+02,1.049237e+03
2.613088e+02,1.041738e+03
2.728796e+02,1.041285e+03
2.844504e+02,1.041575e+03
2.960212e+02,1.038435e+03
3.075920e+02,1.038541e+03
3.191628e+02,1.031099e+03
3.307336e+02,1.030224e+03
3.423044e+02,1.029109e+03
3.538752e+02,1.010323e+03
3.654461e+02,1.014246e+03
3.770169e+02,1.045221e+03
3.885877e+02,9.991077e+02
4.001585e+02,9.786718e+02
4.117293e+02,9.852918e+02
4.233001e+02,9.826071e+02
4.348709e+02,9.862889e+02
4.464417e+02,9.655795e+02
4.580125e+02,9.692339e+02
4.695833e+02,9.447783e+02
4.811541e+02,9.473514e+02
4.927249e+02,9.351578e+02
5.042957e+02,9.253890e+02
5.158665e+02,9.296671e+02
5.274373e+02,9.190688e+02
5.390081e+02,8.998857e+02
5.505789e+02,8.957866e+02
5.621497e+02,8.916584e+02
5.737205e+02,8.914628e+02
5.852913e+02,8.865553e+02
5.968621e+02,8.693734e+02
6.084329e+02,8.786564e+02
6.200037e+02,8.627869e+02
6.315745e+02,8.715716e+02
6.431453e+02,8.641711e+02
6.547161e+02,8.588480e+02
6.662869e+02,8.437538e+02
6.778577e+02,8.386599e+02
6.894285e+02,8.227369e+02
7.009993e+02,8.219832e+02
7.125701e+02,8.338893e+02
7.241409e+02,8.207735e+02
7.357117e+02,8.151344e+02
7.472825e+02,8.133355e+02
7.588533e+02,8.004933e+02
7.704241e+02,7.914597e+02
7.819949e+02,7.880462e+02
7.935657e+02,7.815099e+02
8.051365e+02,7.780016e+02
8.167073e+02,7.790488e+02
8.282781e+02,7.728201e+02
8.398489e+02,7.674086e+02
8.514197e+02,7.650995e+02
8.629905e+02,7.684802e+02
8.745613e+02,7.551604e+02
8.861321e+02,7.503065e+02
8.977029e+02,7.433333e+02
9.092737e+02,7.498110e+02
9.208445e+02,7.342840e+02
9.324153e+02,7.285385e+02
9.439861e+02,7.174891e+02
9.555569e+02,7.163328e+02
9.671277e+02,7.234995e+02
9.786985e+02,7.124437e+02
9.902693e+02,7.160967e+02
1.001840e+03,7.050242e+02
1.013411e+03,6.977086e+02
1.024982e+03,7.004842e+02
1.036552e+03,7.056055e+02
1.048123e+03,7.012997e+02
1.059694e+03,7.033661e+02
1.071265e+03,7.105268e+02
1.082836e+03,7.090475e+02
1.094406e+03,7.415330e+02
1.105977e+03,7.003344e+02
1.117548e+03,7.270705e+02
1.129119e+03,6.950183e+02
1.140690e+03,6.783000e+02
1.152261e+03,6.934815e+02
1.163831e+03,6.921454e+02
1.175402e+03,6.719706e+02
1.186973e+03,6.561426e+02
1.198544e+03,6.523633e+02
1.210115e+03,6.484952e+02
1.221685e+03,6.386876e+02
1.233256e+03,6.372316e+02
1.244827e+03,6.347092e+02
1.256398e+03,6.393142e+02
1.267969e+03,6.415488e+02
1.279539e+03,6.375189e+02
1.291110e+03,6.463307e+02
1.302681e+03,6.404821e+02
1.314252e+03,6.451572e+02
1.325823e+03,6.566172e+02
1.337393e+03,6.453096e+02
1.348964e+03,6.321578e+02
1.360535e+03,6.205342e+02
1.372106e+03,6.282150e+02
1.383677e+03,6.197782e+02
1.395247e+03,6.024567e+02
1.406818e+03,6.022736e+02
1.418389e+03,5.905294e+02
1.429960e+03,5.847910e+02
1.441531e+03,5.814654e+02
1.453101e+03,5.860687e+02
1.464672e+03,5.799170e+02
1.476243e+03,5.782867e+02
1.487814e+03,5.653847e+02
1.499385e+03,5.578405e+02
1.510955e+03,5.514371e+02
1.522526e+03,5.548988e+02
1.534097e+03,5.547371e+02
1.545668e+03,5.468923e+02
1.557239e+03,5.522776e+02
1.568809e+03,5.449454e+02
1.580380e+03,5.482189e+02
1.591951e+03,5.381078e+02
1.603522e+03,5.413577e+02
1.615093e+03,5.489395e+02
1.626663e+03,5.219772e+02
1.638234e+03,5.249667e+02
1.649805e+03,5.107995e+02
1.661376e+03,5.131376e+02
1.672947e+03,5.027698e+02
1.684517e+03,5.095958e+02
1.696088e+03,4.968081e+02
1.707659e+03,4.976999e+02
1.719230e+03,4.972432e+02
1.730801e+03,4.939988e+02
1.742371e+03,4.779324e+02
1.753942e+03,4.791355e+02
1.765513e+03,4.687596e+02
1.777084e+03,4.685151e+02
1.788655e+03,4.680954e+02
1.800225e+03,4.594586e+02
1.811796e+03,4.642290e+02
1.823367e+03,4.516006e+02
1.834938e+03,4.544567e+02
1.846509e+03,4.498573e+02
1.858079e+03,4.429850e+02
1.869650e+03,4.303101e+02
1.881221e+03,4.228750e+02
1.892792e+03,4.233861e+02
1.904363e+03,4.235813e+02
1.915933e+03,4.185510e+02
1.927504e+03,4.115760e+02
1.939075e+03,4.138948e+02
1.950646e+03,4.045619e+02
1.962217e+03,4.014586e+02
1.973787e+03,4.070434e+02
1.985358e+03,3.868211e+02
1.996929e+03,3.886533e+02
2.008500e+03,3.897484e+02
2.020071e+03,3.840625e+02
2.031641e+03,3.756808e+02
2.043212e+03,3.699672e+02
2.054783e+03,3.780130e+02
2.066354e+03,3.688896e+02
2.077925e+03,3.630513e+02
2.089496e+03,3.562873e+02
2.101066e+03,3.488588e+02
2.112637e+03,3.435224e+02
2.124208e+03,3.448255e+02
2.135779e+03,3.374155e+02
2.147350e+03,3.302208e+02
2.158920e+03,3.241393e+02
2.170491e+03,3.223499e+02
2.182062e+03,3.332780e+02
2.193633e+03,3.187351e+02
2.205204e+03,3.229387e+02
2.216774e+03,3.175589e+02
2.228345e+03,3.101421e+02
2.239916e+03,3.090371e+02
2.251487e+03,2.988330e+02
2.263058e+03,3.068400e+02
2.274628e+03,2.903805e+02
2.286199e+03,2.865160e+02
2.297770e+03,2.978720e+02
2.309341e+03,2.838417e+02
2.320912e+03,2.857633e+02
2.332482e+03,2.798144e+02
2.344053e+03,2.809366e+02
2.355624e+03,2.775157e+02
2.367195e+03,2.708962e+02
2.378766e+03,2.746337e+02
2.390336e+03,2.674848e+02
2.401907e+03,2.666232e+02
2.413478e+03,2.605363e+02
2.425049e+03,2.620396e+02
2.436620e+03,2.611979e+02
2.448190e+03,2.507954e+02
2.459761e+03,2.546583e+02
2.471332e+03,2.523895e+02
2.482903e+03,2.482666e+02
2.494474e+03,2.381213e+02
2.506044e+03,2.511969e+02
2.517615e+03,2.501514e+02
2.529186e+03,2.431316e+02
2.540757e+03,2.368280e+02
2.552328e+03,2.407637e+02
2.563898e+03,2.499246e+02
2.575469e+03,2.465088e+02
2.587040e+03,2.337169e+02
2.598611e+03,2.343887e+02
2.610182e+03,2.277785e+02
2.621752e+03,2.258458e+02
2.633323e+03,2.270383e+02
2.644894e+03,2.264436e+02
2.656465e+03,2.228645e+02
2.668036e+03,2.145568e+02
2.679606e+03,2.190763e+02
2.691177e+03,2.193945e+02
2.702748e+03,2.208032e+02
2.714319e+03,2.147482e+02
2.725890e+03,2.070527e+02
2.737460e+03,2.158971e+02
2.749031e+03,2.186863e+02
2.760602e+03,2.184694e+02
2.772173e+03,2.204539e+02
2.783744e+03,2.105573e+02
2.795314e+03,2.068343e+02
2.806885e+03,2.071268e+02
2.818456e+03,2.063804e+02
2.830027e+03,2.173349e+02
2.841598e+03,2.173943e+02
2.853168e+03,2.232316e+02
2.864739e+03,2.276148e+02
2.876310e+03,2.372831e+02
2.887881e+03,2.544670e+02
2.899452e+03,2.603578e+02
2.911022e+03,2.547848e+02
2.922593e+03,2.194526e+02
2.934164e+03,2.355479e+02
2.945735e+03,2.340527e+02
2.957306e+03,2.429447e+02
2.968876e+03,2.205585e+02
2.980447e+03,1.829742e+02
2.992018e+03,1.933887e+02
3.003589e+03,1.829083e+02
3.015160e+03,1.799235e+02
3.026730e+03,1.849289e+02
3.038301e+03,1.861364e+02
3.049872e+03,1.847398e+02
3.061443e+03,1.940842e+02
3.073014e+03,1.813065e+02
3.084584e+03,1.839353e+02
3.096155e+03,1.893143e+02
3.107726e+03,1.909987e+02
3.119297e+03,2.149606e+02
3.130868e+03,2.023761e+02
3.142438e+03,2.065194e+02
3.154009e+03,2.079718e+02
3.165580e+03,1.959186e+02
3.177151e+03,1.804407e+02
3.188722e+03,1.803430e+02
3.200292e+03,2.213849e+02
3.211863e+03,0.000000e+00
3.223434e+03,0.000000e+00
3.235005e+03,0.000000e+00
3.246576e+03,0.000000e+00
3.258146e+03,0.000000e+00
3.269717e+03,0.000000e+00
3.281288e+03,0.000000e+00
3.292859e+03,0.000000e+00
3.304430e+03,0.000000e+00
3.316000e+03,0.000000e+00
3.327571e+03,0.000000e+00
3.339142e+03,0.000000e+00
3.350713e+03,0.000000e+00
3.362284e+03,0.000000e+00
3.373854e+03,0.000000e+00
3.385425e+03,0.000000e+00
3.396996e+03,0.000000e+00
3.408567e+03,0.000000e+00
3.420138e+03,0.000000e+00
3.431708e+03,0.000000e+00
3.443279e+03,0.000000e+00
3.454850e+03,0.000000e+00
3.466421e+03,0.000000e+00
3.477992e+03,0.000000e+00
3.489563e+03,0.000000e+00
3.500169e+03,0.000000e+00