Folder: Taff_Bargoed_microplastics_data/RAMAN_data/12022024_r2 (part 6)

File: red frag1.CSV
9.931763e+01,0.000000e+00
1.108884e+02,0.000000e+00
1.224592e+02,0.000000e+00
1.340300e+02,0.000000e+00
1.456008e+02,0.000000e+00
1.571716e+02,0.000000e+00
1.687424e+02,0.000000e+00
1.803132e+02,0.000000e+00
1.918840e+02,0.000000e+00
2.034548e+02,6.608508e+03
2.150256e+02,6.613263e+03
2.265964e+02,6.625440e+03
2.381673e+02,6.664265e+03
2.497381e+02,6.678749e+03
2.613088e+02,6.698818e+03
2.728796e+02,6.718141e+03
2.844504e+02,6.740960e+03
2.960212e+02,6.737708e+03
3.075920e+02,6.742115e+03
3.191628e+02,6.747032e+03
3.307336e+02,6.755595e+03
3.423044e+02,6.748896e+03
3.538752e+02,6.776716e+03
3.654461e+02,6.774866e+03
3.770169e+02,6.776280e+03
3.885877e+02,6.776200e+03
4.001585e+02,6.773101e+03
4.117293e+02,6.735934e+03
4.233001e+02,6.741642e+03
4.348709e+02,6.738875e+03
4.464417e+02,6.717483e+03
4.580125e+02,6.718269e+03
4.695833e+02,6.708998e+03
4.811541e+02,6.690519e+03
4.927249e+02,6.696227e+03
5.042957e+02,6.678544e+03
5.158665e+02,6.717348e+03
5.274373e+02,6.682193e+03
5.390081e+02,6.643487e+03
5.505789e+02,6.626214e+03
5.621497e+02,6.641845e+03
5.737205e+02,6.597532e+03
5.852913e+02,6.553782e+03
5.968621e+02,6.560323e+03
6.084329e+02,6.573560e+03
6.200037e+02,6.552065e+03
6.315745e+02,6.517458e+03
6.431453e+02,6.493733e+03
6.547161e+02,6.503423e+03
6.662869e+02,6.463664e+03
6.778577e+02,6.444417e+03
6.894285e+02,6.408979e+03
7.009993e+02,6.379835e+03
7.125701e+02,6.376320e+03
7.241409e+02,6.348823e+03
7.357117e+02,6.313662e+03
7.472825e+02,6.330125e+03
7.588533e+02,6.269173e+03
7.704241e+02,6.243372e+03
7.819949e+02,6.227447e+03
7.935657e+02,6.194298e+03
8.051365e+02,6.171356e+03
8.167073e+02,6.155669e+03
8.282781e+02,6.133146e+03
8.398489e+02,6.112857e+03
8.514197e+02,6.097914e+03
8.629905e+02,6.067748e+03
8.745613e+02,6.049881e+03
8.861321e+02,6.028743e+03
8.977029e+02,5.990888e+03
9.092737e+02,5.965690e+03
9.208445e+02,5.909106e+03
9.324153e+02,5.920540e+03
9.439861e+02,5.880118e+03
9.555569e+02,5.862118e+03
9.671277e+02,5.849361e+03
9.786985e+02,5.817314e+03
9.902693e+02,5.787986e+03
1.001840e+03,5.746879e+03
1.013411e+03,5.725096e+03
1.024982e+03,5.724398e+03
1.036552e+03,5.702558e+03
1.048123e+03,5.669327e+03
1.059694e+03,5.650755e+03
1.071265e+03,5.643538e+03
1.082836e+03,5.683786e+03
1.094406e+03,5.632315e+03
1.105977e+03,5.603533e+03
1.117548e+03,5.595013e+03
1.129119e+03,5.532126e+03
1.140690e+03,5.534478e+03
1.152261e+03,5.525080e+03
1.163831e+03,5.506450e+03
1.175402e+03,5.462533e+03
1.186973e+03,5.448830e+03
1.198544e+03,5.460999e+03
1.210115e+03,5.430467e+03
1.221685e+03,5.403842e+03
1.233256e+03,5.392202e+03
1.244827e+03,5.373133e+03
1.256398e+03,5.337849e+03
1.267969e+03,5.342977e+03
1.279539e+03,5.343244e+03
1.291110e+03,5.339431e+03
1.302681e+03,5.299143e+03
1.314252e+03,5.303412e+03
1.325823e+03,5.265460e+03
1.337393e+03,5.279477e+03
1.348964e+03,5.256499e+03
1.360535e+03,5.222972e+03
1.372106e+03,5.197365e+03
1.383677e+03,5.176542e+03
1.395247e+03,5.149159e+03
1.406818e+03,5.107830e+03
1.418389e+03,5.094548e+03
1.429960e+03,5.097127e+03
1.441531e+03,5.075244e+03
1.453101e+03,5.053320e+03
1.464672e+03,5.012936e+03
1.476243e+03,5.003088e+03
1.487814e+03,4.966374e+03
1.499385e+03,4.946269e+03
1.510955e+03,4.923133e+03
1.522526e+03,4.907398e+03
1.534097e+03,4.889526e+03
1.545668e+03,4.862497e+03
1.557239e+03,4.859995e+03
1.568809e+03,4.830292e+03
1.580380e+03,4.815134e+03
1.591951e+03,4.795307e+03
1.603522e+03,4.750468e+03
1.615093e+03,4.708357e+03
1.626663e+03,4.683476e+03
1.638234e+03,4.632092e+03
1.649805e+03,4.629200e+03
1.661376e+03,4.567769e+03
1.672947e+03,4.526966e+03
1.684517e+03,4.520195e+03
1.696088e+03,4.466998e+03
1.707659e+03,4.443232e+03
1.719230e+03,4.429728e+03
1.730801e+03,4.376940e+03
1.742371e+03,4.358483e+03
1.753942e+03,4.323778e+03
1.765513e+03,4.294838e+03
1.777084e+03,4.245095e+03
1.788655e+03,4.209870e+03
1.800225e+03,4.203269e+03
1.811796e+03,4.153884e+03
1.823367e+03,4.127205e+03
1.834938e+03,4.108987e+03
1.846509e+03,4.061988e+03
1.858079e+03,4.017785e+03
1.869650e+03,3.998801e+03
1.881221e+03,3.982169e+03
1.892792e+03,3.950709e+03
1.904363e+03,3.893612e+03
1.915933e+03,3.853681e+03
1.927504e+03,3.859425e+03
1.939075e+03,3.799097e+03
1.950646e+03,3.797284e+03
1.962217e+03,3.748634e+03
1.973787e+03,3.704163e+03
1.985358e+03,3.676066e+03
1.996929e+03,3.653294e+03
2.008500e+03,3.599583e+03
2.020071e+03,3.575800e+03
2.031641e+03,3.548135e+03
2.043212e+03,3.518634e+03
2.054783e+03,3.457383e+03
2.066354e+03,3.451130e+03
2.077925e+03,3.432842e+03
2.089496e+03,3.387990e+03
2.101066e+03,3.333712e+03
2.112637e+03,3.309405e+03
2.124208e+03,3.307274e+03
2.135779e+03,3.273365e+03
2.147350e+03,3.204937e+03
2.158920e+03,3.173066e+03
2.170491e+03,3.165604e+03
2.182062e+03,3.122069e+03
2.193633e+03,3.102692e+03
2.205204e+03,3.076442e+03
2.216774e+03,3.057838e+03
2.228345e+03,2.987963e+03
2.239916e+03,2.964231e+03
2.251487e+03,2.961878e+03
2.263058e+03,2.928376e+03
2.274628e+03,2.881663e+03
2.286199e+03,2.845103e+03
2.297770e+03,2.841852e+03
2.309341e+03,2.813325e+03
2.320912e+03,2.759545e+03
2.332482e+03,2.758293e+03
2.344053e+03,2.754166e+03
2.355624e+03,2.691503e+03
2.367195e+03,2.635038e+03
2.378766e+03,2.667368e+03
2.390336e+03,2.628513e+03
2.401907e+03,2.585422e+03
2.413478e+03,2.575293e+03
2.425049e+03,2.548918e+03
2.436620e+03,2.530902e+03
2.448190e+03,2.518202e+03
2.459761e+03,2.494967e+03
2.471332e+03,2.442782e+03
2.482903e+03,2.435096e+03
2.494474e+03,2.404916e+03
2.506044e+03,2.377958e+03
2.517615e+03,2.382935e+03
2.529186e+03,2.358712e+03
2.540757e+03,2.336892e+03
2.552328e+03,2.337187e+03
2.563898e+03,2.312130e+03
2.575469e+03,2.299836e+03
2.587040e+03,2.251448e+03
2.598611e+03,2.236689e+03
2.610182e+03,2.225013e+03
2.621752e+03,2.217811e+03
2.633323e+03,2.190498e+03
2.644894e+03,2.177054e+03
2.656465e+03,2.131723e+03
2.668036e+03,2.119451e+03
2.679606e+03,2.107016e+03
2.691177e+03,2.098800e+03
2.702748e+03,2.083264e+03
2.714319e+03,2.067998e+03
2.725890e+03,2.029456e+03
2.737460e+03,2.023692e+03
2.749031e+03,2.015069e+03
2.760602e+03,2.015669e+03
2.772173e+03,1.983168e+03
2.783744e+03,1.992056e+03
2.795314e+03,1.938110e+03
2.806885e+03,1.951637e+03
2.818456e+03,1.926162e+03
2.830027e+03,1.917651e+03
2.841598e+03,1.921544e+03
2.853168e+03,1.906285e+03
2.864739e+03,1.914971e+03
2.876310e+03,1.885955e+03
2.887881e+03,1.889026e+03
2.899452e+03,1.868235e+03
2.911022e+03,1.839637e+03
2.922593e+03,1.810996e+03
2.934164e+03,1.834414e+03
2.945735e+03,1.806395e+03
2.957306e+03,1.794346e+03
2.968876e+03,1.755156e+03
2.980447e+03,1.711934e+03
2.992018e+03,1.738513e+03
3.003589e+03,1.705535e+03
3.015160e+03,1.695282e+03
3.026730e+03,1.676351e+03
3.038301e+03,1.706404e+03
3.049872e+03,1.681328e+03
3.061443e+03,1.684933e+03
3.073014e+03,1.639131e+03
3.084584e+03,1.622136e+03
3.096155e+03,1.635870e+03
3.107726e+03,1.676308e+03
3.119297e+03,1.654082e+03
3.130868e+03,1.595902e+03
3.142438e+03,1.632783e+03
3.154009e+03,1.610739e+03
3.165580e+03,1.585039e+03
3.177151e+03,1.574990e+03
3.188722e+03,1.600706e+03
3.200292e+03,1.582357e+03
3.211863e+03,0.000000e+00
3.223434e+03,0.000000e+00
3.235005e+03,0.000000e+00
3.246576e+03,0.000000e+00
3.258146e+03,0.000000e+00
3.269717e+03,0.000000e+00
3.281288e+03,0.000000e+00
3.292859e+03,0.000000e+00
3.304430e+03,0.000000e+00
3.316000e+03,0.000000e+00
3.327571e+03,0.000000e+00
3.339142e+03,0.000000e+00
3.350713e+03,0.000000e+00
3.362284e+03,0.000000e+00
3.373854e+03,0.000000e+00
3.385425e+03,0.000000e+00
3.396996e+03,0.000000e+00
3.408567e+03,0.000000e+00
3.420138e+03,0.000000e+00
3.431708e+03,0.000000e+00
3.443279e+03,0.000000e+00
3.454850e+03,0.000000e+00
3.466421e+03,0.000000e+00
3.477992e+03,0.000000e+00
3.489563e+03,0.000000e+00
3.500169e+03,0.000000e+00

File: white frag1.CSV
9.931763e+01,0.000000e+00
1.108884e+02,0.000000e+00
1.224592e+02,0.000000e+00
1.340300e+02,0.000000e+00
1.456008e+02,0.000000e+00
1.571716e+02,0.000000e+00
1.687424e+02,0.000000e+00
1.803132e+02,0.000000e+00
1.918840e+02,0.000000e+00
2.034548e+02,1.897514e+03
2.150256e+02,1.896742e+03
2.265964e+02,1.883421e+03
2.381673e+02,1.900789e+03
2.497381e+02,1.885912e+03
2.613088e+02,1.872006e+03
2.728796e+02,1.864433e+03
2.844504e+02,1.866388e+03
2.960212e+02,1.857052e+03
3.075920e+02,1.849826e+03
3.191628e+02,1.845864e+03
3.307336e+02,1.835946e+03
3.423044e+02,1.827129e+03
3.538752e+02,1.828342e+03
3.654461e+02,1.831524e+03
3.770169e+02,1.832336e+03
3.885877e+02,1.798757e+03
4.001585e+02,1.776410e+03
4.117293e+02,1.778019e+03
4.233001e+02,1.755305e+03
4.348709e+02,1.778499e+03
4.464417e+02,1.766015e+03
4.580125e+02,1.754590e+03
4.695833e+02,1.717310e+03
4.811541e+02,1.707807e+03
4.927249e+02,1.700936e+03
5.042957e+02,1.705073e+03
5.158665e+02,1.700822e+03
5.274373e+02,1.680268e+03
5.390081e+02,1.673190e+03
5.505789e+02,1.657462e+03
5.621497e+02,1.669480e+03
5.737205e+02,1.628020e+03
5.852913e+02,1.622138e+03
5.968621e+02,1.610299e+03
6.084329e+02,1.618484e+03
6.200037e+02,1.607533e+03
6.315745e+02,1.596911e+03
6.431453e+02,1.585624e+03
6.547161e+02,1.574568e+03
6.662869e+02,1.556256e+03
6.778577e+02,1.556346e+03
6.894285e+02,1.541585e+03
7.009993e+02,1.544039e+03
7.125701e+02,1.534906e+03
7.241409e+02,1.510889e+03
7.357117e+02,1.510171e+03
7.472825e+02,1.491814e+03
7.588533e+02,1.482417e+03
7.704241e+02,1.478828e+03
7.819949e+02,1.473973e+03
7.935657e+02,1.468784e+03
8.051365e+02,1.456780e+03
8.167073e+02,1.439986e+03
8.282781e+02,1.440778e+03
8.398489e+02,1.425025e+03
8.514197e+02,1.418833e+03
8.629905e+02,1.414922e+03
8.745613e+02,1.408414e+03
8.861321e+02,1.407103e+03
8.977029e+02,1.390350e+03
9.092737e+02,1.371443e+03
9.208445e+02,1.363134e+03
9.324153e+02,1.359577e+03
9.439861e+02,1.357361e+03
9.555569e+02,1.335012e+03
9.671277e+02,1.332726e+03
9.786985e+02,1.328345e+03
9.902693e+02,1.319504e+03
1.001840e+03,1.306099e+03
1.013411e+03,1.302172e+03
1.024982e+03,1.294883e+03
1.036552e+03,1.293744e+03
1.048123e+03,1.293053e+03
1.059694e+03,1.288278e+03
1.071265e+03,1.281306e+03
1.082836e+03,1.282562e+03
1.094406e+03,1.307717e+03
1.105977e+03,1.272464e+03
1.117548e+03,1.285848e+03
1.129119e+03,1.264194e+03
1.140690e+03,1.231454e+03
1.152261e+03,1.236186e+03
1.163831e+03,1.221907e+03
1.175402e+03,1.204489e+03
1.186973e+03,1.203000e+03
1.198544e+03,1.203788e+03
1.210115e+03,1.190673e+03
1.221685e+03,1.178456e+03
1.233256e+03,1.170089e+03
1.244827e+03,1.174796e+03
1.256398e+03,1.165918e+03
1.267969e+03,1.159071e+03
1.279539e+03,1.162424e+03
1.291110e+03,1.164793e+03
1.302681e+03,1.157085e+03
1.314252e+03,1.149380e+03
1.325823e+03,1.148430e+03
1.337393e+03,1.140235e+03
1.348964e+03,1.135586e+03
1.360535e+03,1.129014e+03
1.372106e+03,1.136151e+03
1.383677e+03,1.127877e+03
1.395247e+03,1.094576e+03
1.406818e+03,1.102432e+03
1.418389e+03,1.094947e+03
1.429960e+03,1.092038e+03
1.441531e+03,1.082988e+03
1.453101e+03,1.068555e+03
1.464672e+03,1.069652e+03
1.476243e+03,1.058652e+03
1.487814e+03,1.056626e+03
1.499385e+03,1.044988e+03
1.510955e+03,1.040829e+03
1.522526e+03,1.036035e+03
1.534097e+03,1.028521e+03
1.545668e+03,1.027048e+03
1.557239e+03,1.023513e+03
1.568809e+03,1.011237e+03
1.580380e+03,1.007613e+03
1.591951e+03,1.004053e+03
1.603522e+03,1.003032e+03
1.615093e+03,9.897391e+02
1.626663e+03,9.661719e+02
1.638234e+03,9.734536e+02
1.649805e+03,9.642731e+02
1.661376e+03,9.595969e+02
1.672947e+03,9.526481e+02
1.684517e+03,9.497383e+02
1.696088e+03,9.398359e+02
1.707659e+03,9.296299e+02
1.719230e+03,9.203424e+02
1.730801e+03,9.193870e+02
1.742371e+03,9.170483e+02
1.753942e+03,8.913352e+02
1.765513e+03,9.000422e+02
1.777084e+03,8.904416e+02
1.788655e+03,8.875416e+02
1.800225e+03,8.779752e+02
1.811796e+03,8.629205e+02
1.823367e+03,8.707869e+02
1.834938e+03,8.630211e+02
1.846509e+03,8.552166e+02
1.858079e+03,8.427646e+02
1.869650e+03,8.379387e+02
1.881221e+03,8.327627e+02
1.892792e+03,8.300684e+02
1.904363e+03,8.074445e+02
1.915933e+03,8.024620e+02
1.927504e+03,7.983799e+02
1.939075e+03,7.871815e+02
1.950646e+03,7.786422e+02
1.962217e+03,7.858232e+02
1.973787e+03,7.733350e+02
1.985358e+03,7.587780e+02
1.996929e+03,7.751597e+02
2.008500e+03,7.564707e+02
2.020071e+03,7.460627e+02
2.031641e+03,7.364492e+02
2.043212e+03,7.361161e+02
2.054783e+03,7.242988e+02
2.066354e+03,6.966642e+02
2.077925e+03,7.013493e+02
2.089496e+03,7.061530e+02
2.101066e+03,6.881146e+02
2.112637e+03,6.805948e+02
2.124208e+03,6.746863e+02
2.135779e+03,6.819307e+02
2.147350e+03,6.532799e+02
2.158920e+03,6.524975e+02
2.170491e+03,6.489911e+02
2.182062e+03,6.413073e+02
2.193633e+03,6.374474e+02
2.205204e+03,6.314533e+02
2.216774e+03,6.184495e+02
2.228345e+03,5.992282e+02
2.239916e+03,6.194125e+02
2.251487e+03,6.087121e+02
2.263058e+03,5.921154e+02
2.274628e+03,5.849578e+02
2.286199e+03,5.804493e+02
2.297770e+03,5.882346e+02
2.309341e+03,5.704898e+02
2.320912e+03,5.606622e+02
2.332482e+03,5.676069e+02
2.344053e+03,5.582895e+02
2.355624e+03,5.490054e+02
2.367195e+03,5.305071e+02
2.378766e+03,5.427372e+02
2.390336e+03,5.366910e+02
2.401907e+03,5.305367e+02
2.413478e+03,5.136516e+02
2.425049e+03,5.189875e+02
2.436620e+03,5.209285e+02
2.448190e+03,5.030188e+02
2.459761e+03,5.095177e+02
2.471332e+03,4.900179e+02
2.482903e+03,4.978302e+02
2.494474e+03,4.861214e+02
2.506044e+03,4.911690e+02
2.517615e+03,4.768470e+02
2.529186e+03,4.603058e+02
2.540757e+03,4.656170e+02
2.552328e+03,4.754594e+02
2.563898e+03,4.667661e+02
2.575469e+03,4.713385e+02
2.587040e+03,4.514037e+02
2.598611e+03,4.544609e+02
2.610182e+03,4.365458e+02
2.621752e+03,4.341418e+02
2.633323e+03,4.340571e+02
2.644894e+03,4.424303e+02
2.656465e+03,4.550644e+02
2.668036e+03,4.419930e+02
2.679606e+03,4.332030e+02
2.691177e+03,4.365646e+02
2.702748e+03,4.292995e+02
2.714319e+03,4.319397e+02
2.725890e+03,4.123176e+02
2.737460e+03,4.087843e+02
2.749031e+03,4.164519e+02
2.760602e+03,4.119277e+02
2.772173e+03,4.166019e+02
2.783744e+03,4.109370e+02
2.795314e+03,3.979814e+02
2.806885e+03,3.944230e+02
2.818456e+03,3.959899e+02
2.830027e+03,4.142122e+02
2.841598e+03,4.196122e+02
2.853168e+03,4.086725e+02
2.864739e+03,4.264292e+02
2.876310e+03,4.183600e+02
2.887881e+03,4.372568e+02
2.899452e+03,4.475254e+02
2.911022e+03,4.314333e+02
2.922593e+03,4.056338e+02
2.934164e+03,4.115956e+02
2.945735e+03,4.091049e+02
2.957306e+03,4.112296e+02
2.968876e+03,4.056753e+02
2.980447e+03,3.910215e+02
2.992018e+03,3.814048e+02
3.003589e+03,3.655147e+02
3.015160e+03,3.422962e+02
3.026730e+03,3.592860e+02
3.038301e+03,3.749014e+02
3.049872e+03,3.606024e+02
3.061443e+03,3.723163e+02
3.073014e+03,3.586131e+02
3.084584e+03,3.522109e+02
3.096155e+03,3.539822e+02
3.107726e+03,3.584909e+02
3.119297e+03,3.587984e+02
3.130868e+03,3.833233e+02
3.142438e+03,3.466220e+02
3.154009e+03,3.783903e+02
3.165580e+03,3.798890e+02
3.177151e+03,3.718543e+02
3.188722e+03,3.777227e+02
3.200292e+03,3.979277e+02
3.211863e+03,0.000000e+00
3.223434e+03,0.000000e+00
3.235005e+03,0.000000e+00
3.246576e+03,0.000000e+00
3.258146e+03,0.000000e+00
3.269717e+03,0.000000e+00
3.281288e+03,0.000000e+00
3.292859e+03,0.000000e+00
3.304430e+03,0.000000e+00
3.316000e+03,0.000000e+00
3.327571e+03,0.000000e+00
3.339142e+03,0.000000e+00
3.350713e+03,0.000000e+00
3.362284e+03,0.000000e+00
3.373854e+03,0.000000e+00
3.385425e+03,0.000000e+00
3.396996e+03,0.000000e+00
3.408567e+03,0.000000e+00
3.420138e+03,0.000000e+00
3.431708e+03,0.000000e+00
3.443279e+03,0.000000e+00
3.454850e+03,0.000000e+00
3.466421e+03,0.000000e+00
3.477992e+03,0.000000e+00
3.489563e+03,0.000000e+00
3.500169e+03,0.000000e+00