Folder: Taff_Bargoed_microplastics_data/RAMAN_data/13042023_r2

Note: README.md
# Taff_Bargoed_microplastics_data

File: black fibre1.CSV
9.931763e+01,0.000000e+00
1.108884e+02,0.000000e+00
1.224592e+02,0.000000e+00
1.340300e+02,0.000000e+00
1.456008e+02,0.000000e+00
1.571716e+02,0.000000e+00
1.687424e+02,0.000000e+00
1.803132e+02,0.000000e+00
1.918840e+02,0.000000e+00
2.034548e+02,2.139302e+03
2.150256e+02,2.107098e+03
2.265964e+02,2.088103e+03
2.381673e+02,2.076202e+03
2.497381e+02,2.040335e+03
2.613088e+02,2.004947e+03
2.728796e+02,1.986286e+03
2.844504e+02,1.958969e+03
2.960212e+02,1.923823e+03
3.075920e+02,1.913236e+03
3.191628e+02,1.881699e+03
3.307336e+02,1.861540e+03
3.423044e+02,1.829397e+03
3.538752e+02,1.806286e+03
3.654461e+02,1.775674e+03
3.770169e+02,1.770143e+03
3.885877e+02,1.733074e+03
4.001585e+02,1.693454e+03
4.117293e+02,1.679188e+03
4.233001e+02,1.656977e+03
4.348709e+02,1.652204e+03
4.464417e+02,1.640302e+03
4.580125e+02,1.606090e+03
4.695833e+02,1.565006e+03
4.811541e+02,1.563635e+03
4.927249e+02,1.536032e+03
5.042957e+02,1.514244e+03
5.158665e+02,1.497272e+03
5.274373e+02,1.483307e+03
5.390081e+02,1.462529e+03
5.505789e+02,1.437170e+03
5.621497e+02,1.432531e+03
5.737205e+02,1.402291e+03
5.852913e+02,1.401838e+03
5.968621e+02,1.383221e+03
6.084329e+02,1.368336e+03
6.200037e+02,1.342776e+03
6.315745e+02,1.342945e+03
6.431453e+02,1.319031e+03
6.547161e+02,1.302866e+03
6.662869e+02,1.305791e+03
6.778577e+02,1.266432e+03
6.894285e+02,1.255595e+03
7.009993e+02,1.262788e+03
7.125701e+02,1.237399e+03
7.241409e+02,1.239002e+03
7.357117e+02,1.222783e+03
7.472825e+02,1.220626e+03
7.588533e+02,1.202495e+03
7.704241e+02,1.181711e+03
7.819949e+02,1.171662e+03
7.935657e+02,1.167590e+03
8.051365e+02,1.155052e+03
8.167073e+02,1.145635e+03
8.282781e+02,1.126979e+03
8.398489e+02,1.135863e+03
8.514197e+02,1.110971e+03
8.629905e+02,1.114277e+03
8.745613e+02,1.112948e+03
8.861321e+02,1.107748e+03
8.977029e+02,1.085607e+03
9.092737e+02,1.070761e+03
9.208445e+02,1.058110e+03
9.324153e+02,1.047853e+03
9.439861e+02,1.046458e+03
9.555569e+02,1.042360e+03
9.671277e+02,1.025128e+03
9.786985e+02,1.013733e+03
9.902693e+02,1.007536e+03
1.001840e+03,1.000873e+03
1.013411e+03,9.865688e+02
1.024982e+03,9.880338e+02
1.036552e+03,9.875865e+02
1.048123e+03,9.733880e+02
1.059694e+03,9.701487e+02
1.071265e+03,9.673848e+02
1.082836e+03,9.653708e+02
1.094406e+03,9.816287e+02
1.105977e+03,9.610009e+02
1.117548e+03,9.545425e+02
1.129119e+03,9.289925e+02
1.140690e+03,9.105506e+02
1.152261e+03,9.079622e+02
1.163831e+03,8.854944e+02
1.175402e+03,8.787558e+02
1.186973e+03,8.758896e+02
1.198544e+03,8.757640e+02
1.210115e+03,8.528757e+02
1.221685e+03,8.475561e+02
1.233256e+03,8.370611e+02
1.244827e+03,8.361432e+02
1.256398e+03,8.327346e+02
1.267969e+03,8.337941e+02
1.279539e+03,8.309635e+02
1.291110e+03,8.204869e+02
1.302681e+03,8.043708e+02
1.314252e+03,8.101122e+02
1.325823e+03,8.067117e+02
1.337393e+03,8.061059e+02
1.348964e+03,8.015736e+02
1.360535e+03,7.833298e+02
1.372106e+03,7.873173e+02
1.383677e+03,7.806740e+02
1.395247e+03,7.575715e+02
1.406818e+03,7.512698e+02
1.418389e+03,7.485781e+02
1.429960e+03,7.437552e+02
1.441531e+03,7.317625e+02
1.453101e+03,7.239570e+02
1.464672e+03,7.222842e+02
1.476243e+03,7.174180e+02
1.487814e+03,7.071709e+02
1.499385e+03,6.928620e+02
1.510955e+03,6.934557e+02
1.522526e+03,6.817587e+02
1.534097e+03,6.787693e+02
1.545668e+03,6.720309e+02
1.557239e+03,6.689637e+02
1.568809e+03,6.659951e+02
1.580380e+03,6.524816e+02
1.591951e+03,6.553827e+02
1.603522e+03,6.490217e+02
1.615093e+03,6.404761e+02
1.626663e+03,6.509932e+02
1.638234e+03,6.296078e+02
1.649805e+03,6.239753e+02
1.661376e+03,6.086991e+02
1.672947e+03,6.093033e+02
1.684517e+03,6.064987e+02
1.696088e+03,6.022802e+02
1.707659e+03,5.966302e+02
1.719230e+03,5.930495e+02
1.730801e+03,5.809633e+02
1.742371e+03,5.715048e+02
1.753942e+03,5.751149e+02
1.765513e+03,5.628693e+02
1.777084e+03,5.521188e+02
1.788655e+03,5.395836e+02
1.800225e+03,5.494456e+02
1.811796e+03,5.361563e+02
1.823367e+03,5.395717e+02
1.834938e+03,5.357304e+02
1.846509e+03,5.288804e+02
1.858079e+03,5.106477e+02
1.869650e+03,5.159969e+02
1.881221e+03,5.140383e+02
1.892792e+03,5.021261e+02
1.904363e+03,5.004317e+02
1.915933e+03,4.946783e+02
1.927504e+03,4.888466e+02
1.939075e+03,4.862141e+02
1.950646e+03,4.768165e+02
1.962217e+03,4.693518e+02
1.973787e+03,4.740257e+02
1.985358e+03,4.662405e+02
1.996929e+03,4.561646e+02
2.008500e+03,4.514752e+02
2.020071e+03,4.454589e+02
2.031641e+03,4.408526e+02
2.043212e+03,4.392562e+02
2.054783e+03,4.318083e+02
2.066354e+03,4.220460e+02
2.077925e+03,4.187698e+02
2.089496e+03,4.255434e+02
2.101066e+03,4.160097e+02
2.112637e+03,4.107837e+02
2.124208e+03,4.144747e+02
2.135779e+03,4.003802e+02
2.147350e+03,3.938306e+02
2.158920e+03,3.927551e+02
2.170491e+03,3.974125e+02
2.182062e+03,3.932149e+02
2.193633e+03,3.753236e+02
2.205204e+03,3.728853e+02
2.216774e+03,3.627442e+02
2.228345e+03,3.692531e+02
2.239916e+03,3.565110e+02
2.251487e+03,3.636996e+02
2.263058e+03,3.576916e+02
2.274628e+03,3.422336e+02
2.286199e+03,3.436147e+02
2.297770e+03,3.394406e+02
2.309341e+03,3.378300e+02
2.320912e+03,3.327779e+02
2.332482e+03,3.299845e+02
2.344053e+03,3.241919e+02
2.355624e+03,3.218297e+02
2.367195e+03,3.234420e+02
2.378766e+03,3.136977e+02
2.390336e+03,3.109635e+02
2.401907e+03,3.142076e+02
2.413478e+03,3.041071e+02
2.425049e+03,2.962766e+02
2.436620e+03,3.027674e+02
2.448190e+03,2.930173e+02
2.459761e+03,2.989458e+02
2.471332e+03,2.903515e+02
2.482903e+03,2.925139e+02
2.494474e+03,2.862281e+02
2.506044e+03,2.874823e+02
2.517615e+03,2.830034e+02
2.529186e+03,2.820031e+02
2.540757e+03,2.814924e+02
2.552328e+03,2.755255e+02
2.563898e+03,2.825719e+02
2.575469e+03,2.849315e+02
2.587040e+03,2.619420e+02
2.598611e+03,2.647946e+02
2.610182e+03,2.616905e+02
2.621752e+03,2.767440e+02
2.633323e+03,2.673973e+02
2.644894e+03,2.508412e+02
2.656465e+03,2.562819e+02
2.668036e+03,2.522290e+02
2.679606e+03,2.517815e+02
2.691177e+03,2.578837e+02
2.702748e+03,2.523890e+02
2.714319e+03,2.483940e+02
2.725890e+03,2.378718e+02
2.737460e+03,2.455501e+02
2.749031e+03,2.518593e+02
2.760602e+03,2.492323e+02
2.772173e+03,2.469741e+02
2.783744e+03,2.429433e+02
2.795314e+03,2.430383e+02
2.806885e+03,2.394582e+02
2.818456e+03,2.382819e+02
2.830027e+03,2.411691e+02
2.841598e+03,2.511794e+02
2.853168e+03,2.582047e+02
2.864739e+03,2.569807e+02
2.876310e+03,2.716009e+02
2.887881e+03,2.649133e+02
2.899452e+03,2.807061e+02
2.911022e+03,2.771355e+02
2.922593e+03,2.558086e+02
2.934164e+03,2.560326e+02
2.945735e+03,2.458414e+02
2.957306e+03,2.847531e+02
2.968876e+03,2.440401e+02
2.980447e+03,2.089715e+02
2.992018e+03,2.160489e+02
3.003589e+03,2.287341e+02
3.015160e+03,2.199358e+02
3.026730e+03,2.063222e+02
3.038301e+03,2.284512e+02
3.049872e+03,2.258998e+02
3.061443e+03,2.078591e+02
3.073014e+03,2.054959e+02
3.084584e+03,2.099222e+02
3.096155e+03,2.121430e+02
3.107726e+03,2.255550e+02
3.119297e+03,2.030176e+02
3.130868e+03,2.267786e+02
3.142438e+03,2.141550e+02
3.154009e+03,2.306308e+02
3.165580e+03,2.303235e+02
3.177151e+03,2.244272e+02
3.188722e+03,2.241887e+02
3.200292e+03,2.379792e+02
3.211863e+03,0.000000e+00
3.223434e+03,0.000000e+00
3.235005e+03,0.000000e+00
3.246576e+03,0.000000e+00
3.258146e+03,0.000000e+00
3.269717e+03,0.000000e+00
3.281288e+03,0.000000e+00
3.292859e+03,0.000000e+00
3.304430e+03,0.000000e+00
3.316000e+03,0.000000e+00
3.327571e+03,0.000000e+00
3.339142e+03,0.000000e+00
3.350713e+03,0.000000e+00
3.362284e+03,0.000000e+00
3.373854e+03,0.000000e+00
3.385425e+03,0.000000e+00
3.396996e+03,0.000000e+00
3.408567e+03,0.000000e+00
3.420138e+03,0.000000e+00
3.431708e+03,0.000000e+00
3.443279e+03,0.000000e+00
3.454850e+03,0.000000e+00
3.466421e+03,0.000000e+00
3.477992e+03,0.000000e+00
3.489563e+03,0.000000e+00
3.500169e+03,0.000000e+00

File: black fibre2.CSV
9.931763e+01,0.000000e+00
1.108884e+02,0.000000e+00
1.224592e+02,0.000000e+00
1.340300e+02,0.000000e+00
1.456008e+02,0.000000e+00
1.571716e+02,0.000000e+00
1.687424e+02,0.000000e+00
1.803132e+02,0.000000e+00
1.918840e+02,0.000000e+00
2.034548e+02,8.414605e+03
2.150256e+02,8.371696e+03
2.265964e+02,8.275332e+03
2.381673e+02,8.258160e+03
2.497381e+02,8.220037e+03
2.613088e+02,8.141036e+03
2.728796e+02,8.080249e+03
2.844504e+02,8.032816e+03
2.960212e+02,7.963024e+03
3.075920e+02,7.887436e+03
3.191628e+02,7.847599e+03
3.307336e+02,7.762779e+03
3.423044e+02,7.686195e+03
3.538752e+02,7.625160e+03
3.654461e+02,7.562563e+03
3.770169e+02,7.518428e+03
3.885877e+02,7.437107e+03
4.001585e+02,7.378825e+03
4.117293e+02,7.313951e+03
4.233001e+02,7.235731e+03
4.348709e+02,7.205057e+03
4.464417e+02,7.108254e+03
4.580125e+02,7.056883e+03
4.695833e+02,7.025926e+03
4.811541e+02,6.969962e+03
4.927249e+02,6.902200e+03
5.042957e+02,6.837239e+03
5.158665e+02,6.810463e+03
5.274373e+02,6.748727e+03
5.390081e+02,6.674625e+03
5.505789e+02,6.631783e+03
5.621497e+02,6.584099e+03
5.737205e+02,6.539317e+03
5.852913e+02,6.481823e+03
5.968621e+02,6.456260e+03
6.084329e+02,6.413298e+03
6.200037e+02,6.357897e+03
6.315745e+02,6.320769e+03
6.431453e+02,6.281054e+03
6.547161e+02,6.220118e+03
6.662869e+02,6.201413e+03
6.778577e+02,6.135008e+03
6.894285e+02,6.072290e+03
7.009993e+02,6.069311e+03
7.125701e+02,6.012208e+03
7.241409e+02,5.976666e+03
7.357117e+02,5.952707e+03
7.472825e+02,5.904320e+03
7.588533e+02,5.851689e+03
7.704241e+02,5.805693e+03
7.819949e+02,5.762089e+03
7.935657e+02,5.757650e+03
8.051365e+02,5.708541e+03
8.167073e+02,5.680223e+03
8.282781e+02,5.644568e+03
8.398489e+02,5.608417e+03
8.514197e+02,5.547893e+03
8.629905e+02,5.512222e+03
8.745613e+02,5.479376e+03
8.861321e+02,5.484134e+03
8.977029e+02,5.426097e+03
9.092737e+02,5.387970e+03
9.208445e+02,5.347093e+03
9.324153e+02,5.316196e+03
9.439861e+02,5.279166e+03
9.555569e+02,5.216809e+03
9.671277e+02,5.197360e+03
9.786985e+02,5.171241e+03
9.902693e+02,5.119591e+03
1.001840e+03,5.093542e+03
1.013411e+03,5.066131e+03
1.024982e+03,5.037769e+03
1.036552e+03,5.004119e+03
1.048123e+03,4.955958e+03
1.059694e+03,4.942633e+03
1.071265e+03,4.927299e+03
1.082836e+03,4.893187e+03
1.094406e+03,4.868550e+03
1.105977e+03,4.835526e+03
1.117548e+03,4.845211e+03
1.129119e+03,4.782024e+03
1.140690e+03,4.762760e+03
1.152261e+03,4.765088e+03
1.163831e+03,4.719471e+03
1.175402e+03,4.639787e+03
1.186973e+03,4.622076e+03
1.198544e+03,4.614244e+03
1.210115e+03,4.584144e+03
1.221685e+03,4.560693e+03
1.233256e+03,4.495560e+03
1.244827e+03,4.509018e+03
1.256398e+03,4.460577e+03
1.267969e+03,4.433095e+03
1.279539e+03,4.413950e+03
1.291110e+03,4.385447e+03
1.302681e+03,4.360619e+03
1.314252e+03,4.316964e+03
1.325823e+03,4.293536e+03
1.337393e+03,4.294619e+03
1.348964e+03,4.255666e+03
1.360535e+03,4.232796e+03
1.372106e+03,4.209655e+03
1.383677e+03,4.167258e+03
1.395247e+03,4.117351e+03
1.406818e+03,4.084839e+03
1.418389e+03,4.090885e+03
1.429960e+03,4.055793e+03
1.441531e+03,4.025145e+03
1.453101e+03,3.976980e+03
1.464672e+03,3.961032e+03
1.476243e+03,3.925218e+03
1.487814e+03,3.912051e+03
1.499385e+03,3.881784e+03
1.510955e+03,3.862047e+03
1.522526e+03,3.837721e+03
1.534097e+03,3.800659e+03
1.545668e+03,3.773052e+03
1.557239e+03,3.777531e+03
1.568809e+03,3.762475e+03
1.580380e+03,3.738067e+03
1.591951e+03,3.727949e+03
1.603522e+03,3.678909e+03
1.615093e+03,3.630613e+03
1.626663e+03,3.605072e+03
1.638234e+03,3.560598e+03
1.649805e+03,3.542791e+03
1.661376e+03,3.508543e+03
1.672947e+03,3.491179e+03
1.684517e+03,3.462724e+03
1.696088e+03,3.421813e+03
1.707659e+03,3.384411e+03
1.719230e+03,3.384306e+03
1.730801e+03,3.342590e+03
1.742371e+03,3.325538e+03
1.753942e+03,3.294533e+03
1.765513e+03,3.273958e+03
1.777084e+03,3.231939e+03
1.788655e+03,3.212425e+03
1.800225e+03,3.201565e+03
1.811796e+03,3.159792e+03
1.823367e+03,3.124613e+03
1.834938e+03,3.097024e+03
1.846509e+03,3.076612e+03
1.858079e+03,3.046739e+03
1.869650e+03,3.002214e+03
1.881221e+03,2.983173e+03
1.892792e+03,2.984249e+03
1.904363e+03,2.947216e+03
1.915933e+03,2.878667e+03
1.927504e+03,2.874373e+03
1.939075e+03,2.862494e+03
1.950646e+03,2.824043e+03
1.962217e+03,2.816130e+03
1.973787e+03,2.766382e+03
1.985358e+03,2.733056e+03
1.996929e+03,2.724666e+03
2.008500e+03,2.678740e+03
2.020071e+03,2.656052e+03
2.031641e+03,2.641404e+03
2.043212e+03,2.606796e+03
2.054783e+03,2.579917e+03
2.066354e+03,2.565943e+03
2.077925e+03,2.533611e+03
2.089496e+03,2.516089e+03
2.101066e+03,2.462352e+03
2.112637e+03,2.436905e+03
2.124208e+03,2.436662e+03
2.135779e+03,2.388724e+03
2.147350e+03,2.367229e+03
2.158920e+03,2.323132e+03
2.170491e+03,2.332663e+03
2.182062e+03,2.290723e+03
2.193633e+03,2.279832e+03
2.205204e+03,2.268737e+03
2.216774e+03,2.226290e+03
2.228345e+03,2.214360e+03
2.239916e+03,2.170734e+03
2.251487e+03,2.149878e+03
2.263058e+03,2.134414e+03
2.274628e+03,2.083802e+03
2.286199e+03,2.075525e+03
2.297770e+03,2.083715e+03
2.309341e+03,2.028284e+03
2.320912e+03,2.021395e+03
2.332482e+03,1.983181e+03
2.344053e+03,1.985855e+03
2.355624e+03,1.958051e+03
2.367195e+03,1.917984e+03
2.378766e+03,1.925361e+03
2.390336e+03,1.914634e+03
2.401907e+03,1.885789e+03
2.413478e+03,1.850605e+03
2.425049e+03,1.851250e+03
2.436620e+03,1.819728e+03
2.448190e+03,1.823454e+03
2.459761e+03,1.777999e+03
2.471332e+03,1.782483e+03
2.482903e+03,1.743982e+03
2.494474e+03,1.724824e+03
2.506044e+03,1.710938e+03
2.517615e+03,1.701683e+03
2.529186e+03,1.689491e+03
2.540757e+03,1.644960e+03
2.552328e+03,1.662922e+03
2.563898e+03,1.637749e+03
2.575469e+03,1.632560e+03
2.587040e+03,1.615619e+03
2.598611e+03,1.587958e+03
2.610182e+03,1.590227e+03
2.621752e+03,1.570201e+03
2.633323e+03,1.552764e+03
2.644894e+03,1.545453e+03
2.656465e+03,1.535971e+03
2.668036e+03,1.538072e+03
2.679606e+03,1.514877e+03
2.691177e+03,1.507035e+03
2.702748e+03,1.474501e+03
2.714319e+03,1.453887e+03
2.725890e+03,1.459556e+03
2.737460e+03,1.454914e+03
2.749031e+03,1.436849e+03
2.760602e+03,1.445531e+03
2.772173e+03,1.418187e+03
2.783744e+03,1.405261e+03
2.795314e+03,1.384573e+03
2.806885e+03,1.391174e+03
2.818456e+03,1.365869e+03
2.830027e+03,1.370185e+03
2.841598e+03,1.362968e+03
2.853168e+03,1.358567e+03
2.864739e+03,1.339057e+03
2.876310e+03,1.329218e+03
2.887881e+03,1.314413e+03
2.899452e+03,1.322542e+03
2.911022e+03,1.321968e+03
2.922593e+03,1.289114e+03
2.934164e+03,1.279380e+03
2.945735e+03,1.322118e+03
2.957306e+03,1.300270e+03
2.968876e+03,1.251071e+03
2.980447e+03,1.229681e+03
2.992018e+03,1.270558e+03
3.003589e+03,1.251374e+03
3.015160e+03,1.225170e+03
3.026730e+03,1.236353e+03
3.038301e+03,1.198430e+03
3.049872e+03,1.190492e+03
3.061443e+03,1.223674e+03
3.073014e+03,1.192056e+03
3.084584e+03,1.187359e+03
3.096155e+03,1.178965e+03
3.107726e+03,1.216123e+03
3.119297e+03,1.201427e+03
3.130868e+03,1.225422e+03
3.142438e+03,1.184022e+03
3.154009e+03,1.208846e+03
3.165580e+03,1.217660e+03
3.177151e+03,1.150935e+03
3.188722e+03,1.142782e+03
3.200292e+03,1.212571e+03
3.211863e+03,0.000000e+00
3.223434e+03,0.000000e+00
3.235005e+03,0.000000e+00
3.246576e+03,0.000000e+00
3.258146e+03,0.000000e+00
3.269717e+03,0.000000e+00
3.281288e+03,0.000000e+00
3.292859e+03,0.000000e+00
3.304430e+03,0.000000e+00
3.316000e+03,0.000000e+00
3.327571e+03,0.000000e+00
3.339142e+03,0.000000e+00
3.350713e+03,0.000000e+00
3.362284e+03,0.000000e+00
3.373854e+03,0.000000e+00
3.385425e+03,0.000000e+00
3.396996e+03,0.000000e+00
3.408567e+03,0.000000e+00
3.420138e+03,0.000000e+00
3.431708e+03,0.000000e+00
3.443279e+03,0.000000e+00
3.454850e+03,0.000000e+00
3.466421e+03,0.000000e+00
3.477992e+03,0.000000e+00
3.489563e+03,0.000000e+00
3.500169e+03,0.000000e+00

File: black fibre3.CSV
9.931763e+01,0.000000e+00
1.108884e+02,0.000000e+00
1.224592e+02,0.000000e+00
1.340300e+02,0.000000e+00
1.456008e+02,0.000000e+00
1.571716e+02,0.000000e+00
1.687424e+02,0.000000e+00
1.803132e+02,0.000000e+00
1.918840e+02,0.000000e+00
2.034548e+02,1.051899e+04
2.150256e+02,1.057905e+04
2.265964e+02,1.068651e+04
2.381673e+02,1.083713e+04
2.497381e+02,1.092278e+04
2.613088e+02,1.101875e+04
2.728796e+02,1.114345e+04
2.844504e+02,1.128443e+04
2.960212e+02,1.138987e+04
3.075920e+02,1.148845e+04
3.191628e+02,1.160775e+04
3.307336e+02,1.175910e+04
3.423044e+02,1.188976e+04
3.538752e+02,1.203829e+04
3.654461e+02,1.215099e+04
3.770169e+02,1.231110e+04
3.885877e+02,1.244648e+04
4.001585e+02,1.252337e+04
4.117293e+02,1.261926e+04
4.233001e+02,1.267412e+04
4.348709e+02,1.276610e+04
4.464417e+02,1.281223e+04
4.580125e+02,1.281630e+04
4.695833e+02,1.285453e+04
4.811541e+02,1.286892e+04
4.927249e+02,1.288350e+04
5.042957e+02,1.288416e+04
5.158665e+02,1.287573e+04
5.274373e+02,1.286247e+04
5.390081e+02,1.281964e+04
5.505789e+02,1.277585e+04
5.621497e+02,1.269223e+04
5.737205e+02,1.262416e+04
5.852913e+02,1.255879e+04
5.968621e+02,1.251154e+04
6.084329e+02,1.246660e+04
6.200037e+02,1.235690e+04
6.315745e+02,1.229399e+04
6.431453e+02,1.224061e+04
6.547161e+02,1.220158e+04
6.662869e+02,1.210934e+04
6.778577e+02,1.203672e+04
6.894285e+02,1.195438e+04
7.009993e+02,1.194964e+04
7.125701e+02,1.183935e+04
7.241409e+02,1.176778e+04
7.357117e+02,1.173372e+04
7.472825e+02,1.169149e+04
7.588533e+02,1.166103e+04
7.704241e+02,1.153131e+04
7.819949e+02,1.147528e+04
7.935657e+02,1.144354e+04
8.051365e+02,1.136486e+04
8.167073e+02,1.133691e+04
8.282781e+02,1.124181e+04
8.398489e+02,1.121771e+04
8.514197e+02,1.111158e+04
8.629905e+02,1.104262e+04
8.745613e+02,1.098426e+04
8.861321e+02,1.096663e+04
8.977029e+02,1.086159e+04
9.092737e+02,1.081820e+04
9.208445e+02,1.077891e+04
9.324153e+02,1.071831e+04
9.439861e+02,1.063949e+04
9.555569e+02,1.059025e+04
9.671277e+02,1.053992e+04
9.786985e+02,1.051012e+04
9.902693e+02,1.040537e+04
1.001840e+03,1.033351e+04
1.013411e+03,1.031739e+04
1.024982e+03,1.024809e+04
1.036552e+03,1.020671e+04
1.048123e+03,1.015929e+04
1.059694e+03,1.007610e+04
1.071265e+03,1.006961e+04
1.082836e+03,1.002424e+04
1.094406e+03,9.962894e+03
1.105977e+03,9.917397e+03
1.117548e+03,9.879478e+03
1.129119e+03,9.819702e+03
1.140690e+03,9.779318e+03
1.152261e+03,9.774251e+03
1.163831e+03,9.698578e+03
1.175402e+03,9.585418e+03
1.186973e+03,9.587786e+03
1.198544e+03,9.562965e+03
1.210115e+03,9.516737e+03
1.221685e+03,9.461342e+03
1.233256e+03,9.347106e+03
1.244827e+03,9.366134e+03
1.256398e+03,9.281007e+03
1.267969e+03,9.226467e+03
1.279539e+03,9.261062e+03
1.291110e+03,9.194177e+03
1.302681e+03,9.115209e+03
1.314252e+03,9.057754e+03
1.325823e+03,8.983269e+03
1.337393e+03,9.044671e+03
1.348964e+03,8.961660e+03
1.360535e+03,8.862027e+03
1.372106e+03,8.820764e+03
1.383677e+03,8.791879e+03
1.395247e+03,8.707926e+03
1.406818e+03,8.628845e+03
1.418389e+03,8.617427e+03
1.429960e+03,8.548801e+03
1.441531e+03,8.474688e+03
1.453101e+03,8.422320e+03
1.464672e+03,8.367407e+03
1.476243e+03,8.328901e+03
1.487814e+03,8.258923e+03
1.499385e+03,8.212977e+03
1.510955e+03,8.178666e+03
1.522526e+03,8.143913e+03
1.534097e+03,8.090518e+03
1.545668e+03,8.027203e+03
1.557239e+03,8.012595e+03
1.568809e+03,8.009372e+03
1.580380e+03,7.976680e+03
1.591951e+03,7.867723e+03
1.603522e+03,7.829374e+03
1.615093e+03,7.769866e+03
1.626663e+03,7.696937e+03
1.638234e+03,7.635478e+03
1.649805e+03,7.552396e+03
1.661376e+03,7.495611e+03
1.672947e+03,7.438097e+03
1.684517e+03,7.386729e+03
1.696088e+03,7.332611e+03
1.707659e+03,7.306327e+03
1.719230e+03,7.217292e+03
1.730801e+03,7.185377e+03
1.742371e+03,7.140239e+03
1.753942e+03,7.095430e+03
1.765513e+03,7.042602e+03
1.777084e+03,6.986762e+03
1.788655e+03,6.922521e+03
1.800225e+03,6.922417e+03
1.811796e+03,6.833792e+03
1.823367e+03,6.797729e+03
1.834938e+03,6.701991e+03
1.846509e+03,6.678632e+03
1.858079e+03,6.623846e+03
1.869650e+03,6.577270e+03
1.881221e+03,6.519750e+03
1.892792e+03,6.475451e+03
1.904363e+03,6.386308e+03
1.915933e+03,6.347758e+03
1.927504e+03,6.313034e+03
1.939075e+03,6.240369e+03
1.950646e+03,6.186808e+03
1.962217e+03,6.135282e+03
1.973787e+03,6.096405e+03
1.985358e+03,6.058978e+03
1.996929e+03,5.999851e+03
2.008500e+03,5.911726e+03
2.020071e+03,5.845229e+03
2.031641e+03,5.820153e+03
2.043212e+03,5.751608e+03
2.054783e+03,5.688036e+03
2.066354e+03,5.683069e+03
2.077925e+03,5.595021e+03
2.089496e+03,5.560752e+03
2.101066e+03,5.479844e+03
2.112637e+03,5.452556e+03
2.124208e+03,5.423395e+03
2.135779e+03,5.351088e+03
2.147350e+03,5.295403e+03
2.158920e+03,5.221357e+03
2.170491e+03,5.195932e+03
2.182062e+03,5.145696e+03
2.193633e+03,5.107987e+03
2.205204e+03,5.074944e+03
2.216774e+03,5.024548e+03
2.228345e+03,4.946591e+03
2.239916e+03,4.876210e+03
2.251487e+03,4.880241e+03
2.263058e+03,4.785969e+03
2.274628e+03,4.686618e+03
2.286199e+03,4.694380e+03
2.297770e+03,4.685833e+03
2.309341e+03,4.627607e+03
2.320912e+03,4.588705e+03
2.332482e+03,4.555560e+03
2.344053e+03,4.508019e+03
2.355624e+03,4.480536e+03
2.367195e+03,4.412186e+03
2.378766e+03,4.363512e+03
2.390336e+03,4.362895e+03
2.401907e+03,4.296544e+03
2.413478e+03,4.246329e+03
2.425049e+03,4.246026e+03
2.436620e+03,4.178692e+03
2.448190e+03,4.119846e+03
2.459761e+03,4.065906e+03
2.471332e+03,4.069167e+03
2.482903e+03,4.029785e+03
2.494474e+03,3.965522e+03
2.506044e+03,3.953863e+03
2.517615e+03,3.931610e+03
2.529186e+03,3.898549e+03
2.540757e+03,3.848800e+03
2.552328e+03,3.837506e+03
2.563898e+03,3.811855e+03
2.575469e+03,3.791854e+03
2.587040e+03,3.712325e+03
2.598611e+03,3.720324e+03
2.610182e+03,3.724288e+03
2.621752e+03,3.699551e+03
2.633323e+03,3.639786e+03
2.644894e+03,3.601726e+03
2.656465e+03,3.633038e+03
2.668036e+03,3.574044e+03
2.679606e+03,3.552542e+03
2.691177e+03,3.512709e+03
2.702748e+03,3.481585e+03
2.714319e+03,3.447159e+03
2.725890e+03,3.426891e+03
2.737460e+03,3.394025e+03
2.749031e+03,3.398820e+03
2.760602e+03,3.346770e+03
2.772173e+03,3.358530e+03
2.783744e+03,3.345550e+03
2.795314e+03,3.286986e+03
2.806885e+03,3.287561e+03
2.818456e+03,3.222417e+03
2.830027e+03,3.213843e+03
2.841598e+03,3.222492e+03
2.853168e+03,3.214705e+03
2.864739e+03,3.166683e+03
2.876310e+03,3.225071e+03
2.887881e+03,3.157048e+03
2.899452e+03,3.183076e+03
2.911022e+03,3.121353e+03
2.922593e+03,3.075712e+03
2.934164e+03,3.058039e+03
2.945735e+03,3.054423e+03
2.957306e+03,3.039895e+03
2.968876e+03,3.000280e+03
2.980447e+03,3.002718e+03
2.992018e+03,2.960832e+03
3.003589e+03,2.896792e+03
3.015160e+03,2.881237e+03
3.026730e+03,2.877682e+03
3.038301e+03,2.863244e+03
3.049872e+03,2.894336e+03
3.061443e+03,2.904595e+03
3.073014e+03,2.837629e+03
3.084584e+03,2.849918e+03
3.096155e+03,2.891957e+03
3.107726e+03,2.849238e+03
3.119297e+03,2.841151e+03
3.130868e+03,2.811533e+03
3.142438e+03,2.807362e+03
3.154009e+03,2.805834e+03
3.165580e+03,2.808110e+03
3.177151e+03,2.805455e+03
3.188722e+03,2.787814e+03
3.200292e+03,2.779923e+03
3.211863e+03,0.000000e+00
3.223434e+03,0.000000e+00
3.235005e+03,0.000000e+00
3.246576e+03,0.000000e+00
3.258146e+03,0.000000e+00
3.269717e+03,0.000000e+00
3.281288e+03,0.000000e+00
3.292859e+03,0.000000e+00
3.304430e+03,0.000000e+00
3.316000e+03,0.000000e+00
3.327571e+03,0.000000e+00
3.339142e+03,0.000000e+00
3.350713e+03,0.000000e+00
3.362284e+03,0.000000e+00
3.373854e+03,0.000000e+00
3.385425e+03,0.000000e+00
3.396996e+03,0.000000e+00
3.408567e+03,0.000000e+00
3.420138e+03,0.000000e+00
3.431708e+03,0.000000e+00
3.443279e+03,0.000000e+00
3.454850e+03,0.000000e+00
3.466421e+03,0.000000e+00
3.477992e+03,0.000000e+00
3.489563e+03,0.000000e+00
3.500169e+03,0.000000e+00