Folder: Taff_Bargoed_microplastics_data/RAMAN_data/13042023_r2 (part 4)

File: blue fibre7.CSV
9.931763e+01,0.000000e+00
1.108884e+02,0.000000e+00
1.224592e+02,0.000000e+00
1.340300e+02,0.000000e+00
1.456008e+02,0.000000e+00
1.571716e+02,0.000000e+00
1.687424e+02,0.000000e+00
1.803132e+02,0.000000e+00
1.918840e+02,0.000000e+00
2.034548e+02,9.977842e+03
2.150256e+02,9.942644e+03
2.265964e+02,9.962134e+03
2.381673e+02,9.976521e+03
2.497381e+02,9.973240e+03
2.613088e+02,9.973253e+03
2.728796e+02,9.979361e+03
2.844504e+02,1.002187e+04
2.960212e+02,9.902706e+03
3.075920e+02,9.887370e+03
3.191628e+02,9.773873e+03
3.307336e+02,9.711689e+03
3.423044e+02,9.634610e+03
3.538752e+02,9.567223e+03
3.654461e+02,9.476752e+03
3.770169e+02,9.438152e+03
3.885877e+02,9.358021e+03
4.001585e+02,9.253739e+03
4.117293e+02,9.164972e+03
4.233001e+02,9.094205e+03
4.348709e+02,9.014349e+03
4.464417e+02,8.910753e+03
4.580125e+02,8.839083e+03
4.695833e+02,8.780797e+03
4.811541e+02,8.691340e+03
4.927249e+02,8.641021e+03
5.042957e+02,8.562407e+03
5.158665e+02,8.520032e+03
5.274373e+02,8.455334e+03
5.390081e+02,8.387101e+03
5.505789e+02,8.305688e+03
5.621497e+02,8.290965e+03
5.737205e+02,8.188898e+03
5.852913e+02,8.084100e+03
5.968621e+02,8.078086e+03
6.084329e+02,8.017961e+03
6.200037e+02,7.903571e+03
6.315745e+02,7.839179e+03
6.431453e+02,7.790202e+03
6.547161e+02,7.769880e+03
6.662869e+02,7.684872e+03
6.778577e+02,7.623134e+03
6.894285e+02,7.548286e+03
7.009993e+02,7.524403e+03
7.125701e+02,7.472575e+03
7.241409e+02,7.417063e+03
7.357117e+02,7.356499e+03
7.472825e+02,7.295033e+03
7.588533e+02,7.226279e+03
7.704241e+02,7.158502e+03
7.819949e+02,7.123245e+03
7.935657e+02,7.095492e+03
8.051365e+02,7.043962e+03
8.167073e+02,6.993624e+03
8.282781e+02,6.922107e+03
8.398489e+02,6.891640e+03
8.514197e+02,6.835292e+03
8.629905e+02,6.779864e+03
8.745613e+02,6.722375e+03
8.861321e+02,6.684675e+03
8.977029e+02,6.650936e+03
9.092737e+02,6.576434e+03
9.208445e+02,6.543453e+03
9.324153e+02,6.480398e+03
9.439861e+02,6.406029e+03
9.555569e+02,6.355976e+03
9.671277e+02,6.308927e+03
9.786985e+02,6.274730e+03
9.902693e+02,6.210750e+03
1.001840e+03,6.166752e+03
1.013411e+03,6.113281e+03
1.024982e+03,6.079076e+03
1.036552e+03,6.034482e+03
1.048123e+03,5.954075e+03
1.059694e+03,5.925032e+03
1.071265e+03,5.903865e+03
1.082836e+03,5.853092e+03
1.094406e+03,5.817379e+03
1.105977e+03,5.740853e+03
1.117548e+03,5.731811e+03
1.129119e+03,5.653124e+03
1.140690e+03,5.585347e+03
1.152261e+03,5.568153e+03
1.163831e+03,5.524723e+03
1.175402e+03,5.451957e+03
1.186973e+03,5.429450e+03
1.198544e+03,5.388614e+03
1.210115e+03,5.358245e+03
1.221685e+03,5.303989e+03
1.233256e+03,5.258236e+03
1.244827e+03,5.224488e+03
1.256398e+03,5.170346e+03
1.267969e+03,5.137709e+03
1.279539e+03,5.102362e+03
1.291110e+03,5.052227e+03
1.302681e+03,5.019308e+03
1.314252e+03,4.977271e+03
1.325823e+03,4.923892e+03
1.337393e+03,4.928205e+03
1.348964e+03,4.876067e+03
1.360535e+03,4.817724e+03
1.372106e+03,4.802279e+03
1.383677e+03,4.751466e+03
1.395247e+03,4.680203e+03
1.406818e+03,4.651844e+03
1.418389e+03,4.634534e+03
1.429960e+03,4.602056e+03
1.441531e+03,4.562067e+03
1.453101e+03,4.502282e+03
1.464672e+03,4.484238e+03
1.476243e+03,4.451487e+03
1.487814e+03,4.398955e+03
1.499385e+03,4.381693e+03
1.510955e+03,4.315317e+03
1.522526e+03,4.296770e+03
1.534097e+03,4.267545e+03
1.545668e+03,4.217091e+03
1.557239e+03,4.204696e+03
1.568809e+03,4.241390e+03
1.580380e+03,4.183473e+03
1.591951e+03,4.090091e+03
1.603522e+03,4.065380e+03
1.615093e+03,4.023585e+03
1.626663e+03,3.980703e+03
1.638234e+03,3.930915e+03
1.649805e+03,3.898313e+03
1.661376e+03,3.862394e+03
1.672947e+03,3.821393e+03
1.684517e+03,3.769862e+03
1.696088e+03,3.751886e+03
1.707659e+03,3.736580e+03
1.719230e+03,3.687738e+03
1.730801e+03,3.637684e+03
1.742371e+03,3.618705e+03
1.753942e+03,3.570083e+03
1.765513e+03,3.543967e+03
1.777084e+03,3.498600e+03
1.788655e+03,3.463385e+03
1.800225e+03,3.466646e+03
1.811796e+03,3.406385e+03
1.823367e+03,3.378845e+03
1.834938e+03,3.335519e+03
1.846509e+03,3.292451e+03
1.858079e+03,3.279325e+03
1.869650e+03,3.235386e+03
1.881221e+03,3.185905e+03
1.892792e+03,3.160078e+03
1.904363e+03,3.154690e+03
1.915933e+03,3.109561e+03
1.927504e+03,3.081687e+03
1.939075e+03,3.049112e+03
1.950646e+03,2.990345e+03
1.962217e+03,2.994856e+03
1.973787e+03,2.956750e+03
1.985358e+03,2.902991e+03
1.996929e+03,2.879120e+03
2.008500e+03,2.832303e+03
2.020071e+03,2.810461e+03
2.031641e+03,2.777810e+03
2.043212e+03,2.727721e+03
2.054783e+03,2.712452e+03
2.066354e+03,2.655155e+03
2.077925e+03,2.647243e+03
2.089496e+03,2.626536e+03
2.101066e+03,2.580019e+03
2.112637e+03,2.544392e+03
2.124208e+03,2.550313e+03
2.135779e+03,2.511418e+03
2.147350e+03,2.431065e+03
2.158920e+03,2.425784e+03
2.170491e+03,2.401319e+03
2.182062e+03,2.372708e+03
2.193633e+03,2.317389e+03
2.205204e+03,2.338825e+03
2.216774e+03,2.309503e+03
2.228345e+03,2.248366e+03
2.239916e+03,2.235062e+03
2.251487e+03,2.191688e+03
2.263058e+03,2.167028e+03
2.274628e+03,2.121416e+03
2.286199e+03,2.100926e+03
2.297770e+03,2.091795e+03
2.309341e+03,2.062339e+03
2.320912e+03,2.047274e+03
2.332482e+03,2.018203e+03
2.344053e+03,2.000544e+03
2.355624e+03,1.970936e+03
2.367195e+03,1.934910e+03
2.378766e+03,1.897538e+03
2.390336e+03,1.912845e+03
2.401907e+03,1.862332e+03
2.413478e+03,1.831821e+03
2.425049e+03,1.813456e+03
2.436620e+03,1.814141e+03
2.448190e+03,1.789862e+03
2.459761e+03,1.754562e+03
2.471332e+03,1.731215e+03
2.482903e+03,1.719463e+03
2.494474e+03,1.687758e+03
2.506044e+03,1.677825e+03
2.517615e+03,1.657962e+03
2.529186e+03,1.640139e+03
2.540757e+03,1.621456e+03
2.552328e+03,1.622340e+03
2.563898e+03,1.586359e+03
2.575469e+03,1.571204e+03
2.587040e+03,1.560475e+03
2.598611e+03,1.558782e+03
2.610182e+03,1.545107e+03
2.621752e+03,1.508254e+03
2.633323e+03,1.495833e+03
2.644894e+03,1.478600e+03
2.656465e+03,1.483999e+03
2.668036e+03,1.460072e+03
2.679606e+03,1.439498e+03
2.691177e+03,1.447600e+03
2.702748e+03,1.410708e+03
2.714319e+03,1.399509e+03
2.725890e+03,1.378571e+03
2.737460e+03,1.371654e+03
2.749031e+03,1.378394e+03
2.760602e+03,1.353113e+03
2.772173e+03,1.344342e+03
2.783744e+03,1.323549e+03
2.795314e+03,1.320092e+03
2.806885e+03,1.334623e+03
2.818456e+03,1.284808e+03
2.830027e+03,1.297386e+03
2.841598e+03,1.287184e+03
2.853168e+03,1.266888e+03
2.864739e+03,1.290750e+03
2.876310e+03,1.249912e+03
2.887881e+03,1.270535e+03
2.899452e+03,1.278826e+03
2.911022e+03,1.247997e+03
2.922593e+03,1.230077e+03
2.934164e+03,1.228928e+03
2.945735e+03,1.258266e+03
2.957306e+03,1.233409e+03
2.968876e+03,1.162503e+03
2.980447e+03,1.205805e+03
2.992018e+03,1.143363e+03
3.003589e+03,1.173893e+03
3.015160e+03,1.140364e+03
3.026730e+03,1.130288e+03
3.038301e+03,1.141790e+03
3.049872e+03,1.163478e+03
3.061443e+03,1.118714e+03
3.073014e+03,1.129374e+03
3.084584e+03,1.150320e+03
3.096155e+03,1.102633e+03
3.107726e+03,1.077104e+03
3.119297e+03,1.096877e+03
3.130868e+03,1.099246e+03
3.142438e+03,1.122500e+03
3.154009e+03,1.131127e+03
3.165580e+03,1.107191e+03
3.177151e+03,1.107056e+03
3.188722e+03,1.120540e+03
3.200292e+03,1.149425e+03
3.211863e+03,0.000000e+00
3.223434e+03,0.000000e+00
3.235005e+03,0.000000e+00
3.246576e+03,0.000000e+00
3.258146e+03,0.000000e+00
3.269717e+03,0.000000e+00
3.281288e+03,0.000000e+00
3.292859e+03,0.000000e+00
3.304430e+03,0.000000e+00
3.316000e+03,0.000000e+00
3.327571e+03,0.000000e+00
3.339142e+03,0.000000e+00
3.350713e+03,0.000000e+00
3.362284e+03,0.000000e+00
3.373854e+03,0.000000e+00
3.385425e+03,0.000000e+00
3.396996e+03,0.000000e+00
3.408567e+03,0.000000e+00
3.420138e+03,0.000000e+00
3.431708e+03,0.000000e+00
3.443279e+03,0.000000e+00
3.454850e+03,0.000000e+00
3.466421e+03,0.000000e+00
3.477992e+03,0.000000e+00
3.489563e+03,0.000000e+00
3.500169e+03,0.000000e+00

File: blue fibre11.CSV
9.931763e+01,0.000000e+00
1.108884e+02,0.000000e+00
1.224592e+02,0.000000e+00
1.340300e+02,0.000000e+00
1.456008e+02,0.000000e+00
1.571716e+02,0.000000e+00
1.687424e+02,0.000000e+00
1.803132e+02,0.000000e+00
1.918840e+02,0.000000e+00
2.034548e+02,1.051899e+04
2.150256e+02,1.057905e+04
2.265964e+02,1.068651e+04
2.381673e+02,1.083713e+04
2.497381e+02,1.092278e+04
2.613088e+02,1.101875e+04
2.728796e+02,1.114345e+04
2.844504e+02,1.128443e+04
2.960212e+02,1.138987e+04
3.075920e+02,1.148845e+04
3.191628e+02,1.160775e+04
3.307336e+02,1.175910e+04
3.423044e+02,1.188976e+04
3.538752e+02,1.203829e+04
3.654461e+02,1.215099e+04
3.770169e+02,1.231110e+04
3.885877e+02,1.243713e+04
4.001585e+02,1.248129e+04
4.117293e+02,1.258342e+04
4.233001e+02,1.265811e+04
4.348709e+02,1.273974e+04
4.464417e+02,1.282873e+04
4.580125e+02,1.279739e+04
4.695833e+02,1.282883e+04
4.811541e+02,1.281878e+04
4.927249e+02,1.278676e+04
5.042957e+02,1.282989e+04
5.158665e+02,1.285827e+04
5.274373e+02,1.282465e+04
5.390081e+02,1.278860e+04
5.505789e+02,1.278823e+04
5.621497e+02,1.281975e+04
5.737205e+02,1.277075e+04
5.852913e+02,1.276593e+04
5.968621e+02,1.277209e+04
6.084329e+02,1.273896e+04
6.200037e+02,1.260154e+04
6.315745e+02,1.253905e+04
6.431453e+02,1.246313e+04
6.547161e+02,1.243373e+04
6.662869e+02,1.231277e+04
6.778577e+02,1.226433e+04
6.894285e+02,1.217625e+04
7.009993e+02,1.214216e+04
7.125701e+02,1.207030e+04
7.241409e+02,1.201861e+04
7.357117e+02,1.191215e+04
7.472825e+02,1.192216e+04
7.588533e+02,1.178172e+04
7.704241e+02,1.172312e+04
7.819949e+02,1.167399e+04
7.935657e+02,1.164940e+04
8.051365e+02,1.155072e+04
8.167073e+02,1.150244e+04
8.282781e+02,1.140835e+04
8.398489e+02,1.136427e+04
8.514197e+02,1.127898e+04
8.629905e+02,1.117867e+04
8.745613e+02,1.111815e+04
8.861321e+02,1.105281e+04
8.977029e+02,1.099215e+04
9.092737e+02,1.092244e+04
9.208445e+02,1.082475e+04
9.324153e+02,1.077888e+04
9.439861e+02,1.067852e+04
9.555569e+02,1.061498e+04
9.671277e+02,1.058066e+04
9.786985e+02,1.050395e+04
9.902693e+02,1.041193e+04
1.001840e+03,1.034309e+04
1.013411e+03,1.029133e+04
1.024982e+03,1.021683e+04
1.036552e+03,1.014943e+04
1.048123e+03,1.008680e+04
1.059694e+03,1.002807e+04
1.071265e+03,9.996263e+03
1.082836e+03,9.911849e+03
1.094406e+03,9.815432e+03
1.105977e+03,9.748146e+03
1.117548e+03,9.697229e+03
1.129119e+03,9.639351e+03
1.140690e+03,9.527768e+03
1.152261e+03,9.458231e+03
1.163831e+03,9.430036e+03
1.175402e+03,9.293628e+03
1.186973e+03,9.266402e+03
1.198544e+03,9.242533e+03
1.210115e+03,9.136360e+03
1.221685e+03,9.067642e+03
1.233256e+03,9.006438e+03
1.244827e+03,8.955448e+03
1.256398e+03,8.877771e+03
1.267969e+03,8.837274e+03
1.279539e+03,8.730374e+03
1.291110e+03,8.699420e+03
1.302681e+03,8.622877e+03
1.314252e+03,8.523419e+03
1.325823e+03,8.480687e+03
1.337393e+03,8.442390e+03
1.348964e+03,8.366028e+03
1.360535e+03,8.288961e+03
1.372106e+03,8.203696e+03
1.383677e+03,8.146295e+03
1.395247e+03,8.064126e+03
1.406818e+03,7.982154e+03
1.418389e+03,7.929937e+03
1.429960e+03,7.895008e+03
1.441531e+03,7.827070e+03
1.453101e+03,7.756916e+03
1.464672e+03,7.701893e+03
1.476243e+03,7.641048e+03
1.487814e+03,7.583918e+03
1.499385e+03,7.506846e+03
1.510955e+03,7.418828e+03
1.522526e+03,7.402732e+03
1.534097e+03,7.333614e+03
1.545668e+03,7.243411e+03
1.557239e+03,7.221209e+03
1.568809e+03,7.172050e+03
1.580380e+03,7.108046e+03
1.591951e+03,7.045804e+03
1.603522e+03,6.976438e+03
1.615093e+03,6.919014e+03
1.626663e+03,6.879572e+03
1.638234e+03,6.787021e+03
1.649805e+03,6.741152e+03
1.661376e+03,6.668627e+03
1.672947e+03,6.588075e+03
1.684517e+03,6.539108e+03
1.696088e+03,6.513818e+03
1.707659e+03,6.426311e+03
1.719230e+03,6.391218e+03
1.730801e+03,6.308617e+03
1.742371e+03,6.266177e+03
1.753942e+03,6.202875e+03
1.765513e+03,6.142477e+03
1.777084e+03,6.113674e+03
1.788655e+03,6.033350e+03
1.800225e+03,5.992479e+03
1.811796e+03,5.934087e+03
1.823367e+03,5.848336e+03
1.834938e+03,5.841333e+03
1.846509e+03,5.776455e+03
1.858079e+03,5.708802e+03
1.869650e+03,5.645281e+03
1.881221e+03,5.583389e+03
1.892792e+03,5.549269e+03
1.904363e+03,5.463537e+03
1.915933e+03,5.396062e+03
1.927504e+03,5.383405e+03
1.939075e+03,5.325308e+03
1.950646e+03,5.261481e+03
1.962217e+03,5.211493e+03
1.973787e+03,5.160430e+03
1.985358e+03,5.128261e+03
1.996929e+03,5.054414e+03
2.008500e+03,4.986955e+03
2.020071e+03,4.957251e+03
2.031641e+03,4.878701e+03
2.043212e+03,4.847088e+03
2.054783e+03,4.760875e+03
2.066354e+03,4.742216e+03
2.077925e+03,4.656947e+03
2.089496e+03,4.631146e+03
2.101066e+03,4.567233e+03
2.112637e+03,4.501675e+03
2.124208e+03,4.487744e+03
2.135779e+03,4.427023e+03
2.147350e+03,4.314849e+03
2.158920e+03,4.296003e+03
2.170491e+03,4.254192e+03
2.182062e+03,4.187743e+03
2.193633e+03,4.118178e+03
2.205204e+03,4.106135e+03
2.216774e+03,4.037353e+03
2.228345e+03,3.957909e+03
2.239916e+03,3.911320e+03
2.251487e+03,3.915396e+03
2.263058e+03,3.863608e+03
2.274628e+03,3.790847e+03
2.286199e+03,3.701160e+03
2.297770e+03,3.722918e+03
2.309341e+03,3.652119e+03
2.320912e+03,3.601098e+03
2.332482e+03,3.546411e+03
2.344053e+03,3.541962e+03
2.355624e+03,3.477810e+03
2.367195e+03,3.434808e+03
2.378766e+03,3.393019e+03
2.390336e+03,3.342617e+03
2.401907e+03,3.295817e+03
2.413478e+03,3.249417e+03
2.425049e+03,3.202205e+03
2.436620e+03,3.187677e+03
2.448190e+03,3.141238e+03
2.459761e+03,3.083153e+03
2.471332e+03,3.059477e+03
2.482903e+03,3.055488e+03
2.494474e+03,3.001426e+03
2.506044e+03,2.936449e+03
2.517615e+03,2.929644e+03
2.529186e+03,2.875091e+03
2.540757e+03,2.859676e+03
2.552328e+03,2.846161e+03
2.563898e+03,2.803016e+03
2.575469e+03,2.800623e+03
2.587040e+03,2.750369e+03
2.598611e+03,2.730042e+03
2.610182e+03,2.705113e+03
2.621752e+03,2.657965e+03
2.633323e+03,2.635175e+03
2.644894e+03,2.606005e+03
2.656465e+03,2.580774e+03
2.668036e+03,2.574694e+03
2.679606e+03,2.523781e+03
2.691177e+03,2.509285e+03
2.702748e+03,2.498429e+03
2.714319e+03,2.460312e+03
2.725890e+03,2.424301e+03
2.737460e+03,2.402031e+03
2.749031e+03,2.407384e+03
2.760602e+03,2.366743e+03
2.772173e+03,2.345565e+03
2.783744e+03,2.339585e+03
2.795314e+03,2.283240e+03
2.806885e+03,2.298947e+03
2.818456e+03,2.240574e+03
2.830027e+03,2.278695e+03
2.841598e+03,2.203873e+03
2.853168e+03,2.231754e+03
2.864739e+03,2.202919e+03
2.876310e+03,2.184424e+03
2.887881e+03,2.167590e+03
2.899452e+03,2.162782e+03
2.911022e+03,2.151565e+03
2.922593e+03,2.130478e+03
2.934164e+03,2.092740e+03
2.945735e+03,2.041353e+03
2.957306e+03,2.092984e+03
2.968876e+03,2.051001e+03
2.980447e+03,2.039229e+03
2.992018e+03,2.020326e+03
3.003589e+03,1.995406e+03
3.015160e+03,2.031528e+03
3.026730e+03,1.965692e+03
3.038301e+03,1.974176e+03
3.049872e+03,1.965037e+03
3.061443e+03,1.979314e+03
3.073014e+03,1.928189e+03
3.084584e+03,1.951551e+03
3.096155e+03,1.934494e+03
3.107726e+03,1.931057e+03
3.119297e+03,1.905850e+03
3.130868e+03,1.901714e+03
3.142438e+03,1.892278e+03
3.154009e+03,1.936391e+03
3.165580e+03,1.892552e+03
3.177151e+03,1.870492e+03
3.188722e+03,1.948690e+03
3.200292e+03,1.944367e+03
3.211863e+03,0.000000e+00
3.223434e+03,0.000000e+00
3.235005e+03,0.000000e+00
3.246576e+03,0.000000e+00
3.258146e+03,0.000000e+00
3.269717e+03,0.000000e+00
3.281288e+03,0.000000e+00
3.292859e+03,0.000000e+00
3.304430e+03,0.000000e+00
3.316000e+03,0.000000e+00
3.327571e+03,0.000000e+00
3.339142e+03,0.000000e+00
3.350713e+03,0.000000e+00
3.362284e+03,0.000000e+00
3.373854e+03,0.000000e+00
3.385425e+03,0.000000e+00
3.396996e+03,0.000000e+00
3.408567e+03,0.000000e+00
3.420138e+03,0.000000e+00
3.431708e+03,0.000000e+00
3.443279e+03,0.000000e+00
3.454850e+03,0.000000e+00
3.466421e+03,0.000000e+00
3.477992e+03,0.000000e+00
3.489563e+03,0.000000e+00
3.500169e+03,0.000000e+00

File: blue fibre12.CSV
9.931763e+01,0.000000e+00
1.108884e+02,0.000000e+00
1.224592e+02,0.000000e+00
1.340300e+02,0.000000e+00
1.456008e+02,0.000000e+00
1.571716e+02,0.000000e+00
1.687424e+02,0.000000e+00
1.803132e+02,0.000000e+00
1.918840e+02,0.000000e+00
2.034548e+02,1.051899e+04
2.150256e+02,1.057905e+04
2.265964e+02,1.068651e+04
2.381673e+02,1.083713e+04
2.497381e+02,1.092278e+04
2.613088e+02,1.101875e+04
2.728796e+02,1.114345e+04
2.844504e+02,1.128443e+04
2.960212e+02,1.138987e+04
3.075920e+02,1.148845e+04
3.191628e+02,1.160775e+04
3.307336e+02,1.175910e+04
3.423044e+02,1.188976e+04
3.538752e+02,1.203829e+04
3.654461e+02,1.215099e+04
3.770169e+02,1.231110e+04
3.885877e+02,1.246675e+04
4.001585e+02,1.254000e+04
4.117293e+02,1.261078e+04
4.233001e+02,1.270100e+04
4.348709e+02,1.275990e+04
4.464417e+02,1.274586e+04
4.580125e+02,1.276647e+04
4.695833e+02,1.275715e+04
4.811541e+02,1.274436e+04
4.927249e+02,1.273043e+04
5.042957e+02,1.276301e+04
5.158665e+02,1.270803e+04
5.274373e+02,1.262169e+04
5.390081e+02,1.254983e+04
5.505789e+02,1.244959e+04
5.621497e+02,1.246578e+04
5.737205e+02,1.232784e+04
5.852913e+02,1.220323e+04
5.968621e+02,1.218411e+04
6.084329e+02,1.215493e+04
6.200037e+02,1.205285e+04
6.315745e+02,1.198095e+04
6.431453e+02,1.188767e+04
6.547161e+02,1.181464e+04
6.662869e+02,1.170725e+04
6.778577e+02,1.167722e+04
6.894285e+02,1.159912e+04
7.009993e+02,1.157050e+04
7.125701e+02,1.150817e+04
7.241409e+02,1.141017e+04
7.357117e+02,1.133245e+04
7.472825e+02,1.133564e+04
7.588533e+02,1.121712e+04
7.704241e+02,1.117519e+04
7.819949e+02,1.108589e+04
7.935657e+02,1.104907e+04
8.051365e+02,1.098020e+04
8.167073e+02,1.091713e+04
8.282781e+02,1.087495e+04
8.398489e+02,1.084660e+04
8.514197e+02,1.074804e+04
8.629905e+02,1.071696e+04
8.745613e+02,1.064412e+04
8.861321e+02,1.063315e+04
8.977029e+02,1.055223e+04
9.092737e+02,1.047139e+04
9.208445e+02,1.041532e+04
9.324153e+02,1.037865e+04
9.439861e+02,1.031851e+04
9.555569e+02,1.023977e+04
9.671277e+02,1.018594e+04
9.786985e+02,1.013784e+04
9.902693e+02,1.005247e+04
1.001840e+03,9.986373e+03
1.013411e+03,9.963330e+03
1.024982e+03,9.934479e+03
1.036552e+03,9.880291e+03
1.048123e+03,9.838365e+03
1.059694e+03,9.791163e+03
1.071265e+03,9.794501e+03
1.082836e+03,9.744966e+03
1.094406e+03,9.687043e+03
1.105977e+03,9.650237e+03
1.117548e+03,9.656004e+03
1.129119e+03,9.614047e+03
1.140690e+03,9.562950e+03
1.152261e+03,9.551386e+03
1.163831e+03,9.476802e+03
1.175402e+03,9.411799e+03
1.186973e+03,9.395676e+03
1.198544e+03,9.403252e+03
1.210115e+03,9.342395e+03
1.221685e+03,9.304468e+03
1.233256e+03,9.265845e+03
1.244827e+03,9.255638e+03
1.256398e+03,9.220224e+03
1.267969e+03,9.177559e+03
1.279539e+03,9.172189e+03
1.291110e+03,9.124179e+03
1.302681e+03,9.079372e+03
1.314252e+03,9.035841e+03
1.325823e+03,8.974019e+03
1.337393e+03,9.042938e+03
1.348964e+03,8.942694e+03
1.360535e+03,8.887694e+03
1.372106e+03,8.835436e+03
1.383677e+03,8.813364e+03
1.395247e+03,8.730149e+03
1.406818e+03,8.680109e+03
1.418389e+03,8.679879e+03
1.429960e+03,8.629624e+03
1.441531e+03,8.524038e+03
1.453101e+03,8.512238e+03
1.464672e+03,8.440042e+03
1.476243e+03,8.433860e+03
1.487814e+03,8.392511e+03
1.499385e+03,8.316961e+03
1.510955e+03,8.255031e+03
1.522526e+03,8.268545e+03
1.534097e+03,8.173681e+03
1.545668e+03,8.163607e+03
1.557239e+03,8.112760e+03
1.568809e+03,8.129494e+03
1.580380e+03,8.083661e+03
1.591951e+03,8.050408e+03
1.603522e+03,8.001748e+03
1.615093e+03,7.943879e+03
1.626663e+03,7.833548e+03
1.638234e+03,7.772572e+03
1.649805e+03,7.728690e+03
1.661376e+03,7.647241e+03
1.672947e+03,7.611234e+03
1.684517e+03,7.527872e+03
1.696088e+03,7.510069e+03
1.707659e+03,7.441445e+03
1.719230e+03,7.382795e+03
1.730801e+03,7.320639e+03
1.742371e+03,7.292910e+03
1.753942e+03,7.226794e+03
1.765513e+03,7.197726e+03
1.777084e+03,7.110896e+03
1.788655e+03,7.043880e+03
1.800225e+03,7.022434e+03
1.811796e+03,6.955691e+03
1.823367e+03,6.894132e+03
1.834938e+03,6.840495e+03
1.846509e+03,6.795319e+03
1.858079e+03,6.744306e+03
1.869650e+03,6.654017e+03
1.881221e+03,6.596031e+03
1.892792e+03,6.574486e+03
1.904363e+03,6.504532e+03
1.915933e+03,6.474522e+03
1.927504e+03,6.415235e+03
1.939075e+03,6.335135e+03
1.950646e+03,6.282538e+03
1.962217e+03,6.249755e+03
1.973787e+03,6.175613e+03
1.985358e+03,6.144766e+03
1.996929e+03,6.120247e+03
2.008500e+03,6.015956e+03
2.020071e+03,5.981678e+03
2.031641e+03,5.926782e+03
2.043212e+03,5.875911e+03
2.054783e+03,5.828556e+03
2.066354e+03,5.764386e+03
2.077925e+03,5.712978e+03
2.089496e+03,5.662607e+03
2.101066e+03,5.560926e+03
2.112637e+03,5.573043e+03
2.124208e+03,5.517854e+03
2.135779e+03,5.404458e+03
2.147350e+03,5.371434e+03
2.158920e+03,5.334774e+03
2.170491e+03,5.311729e+03
2.182062e+03,5.253570e+03
2.193633e+03,5.204939e+03
2.205204e+03,5.172635e+03
2.216774e+03,5.136447e+03
2.228345e+03,5.031237e+03
2.239916e+03,4.983656e+03
2.251487e+03,4.940081e+03
2.263058e+03,4.887455e+03
2.274628e+03,4.831906e+03
2.286199e+03,4.783443e+03
2.297770e+03,4.780988e+03
2.309341e+03,4.711272e+03
2.320912e+03,4.640723e+03
2.332482e+03,4.617428e+03
2.344053e+03,4.580490e+03
2.355624e+03,4.528891e+03
2.367195e+03,4.465251e+03
2.378766e+03,4.426751e+03
2.390336e+03,4.377995e+03
2.401907e+03,4.353391e+03
2.413478e+03,4.318899e+03
2.425049e+03,4.287315e+03
2.436620e+03,4.230685e+03
2.448190e+03,4.199071e+03
2.459761e+03,4.122971e+03
2.471332e+03,4.119538e+03
2.482903e+03,4.098000e+03
2.494474e+03,4.048563e+03
2.506044e+03,3.965571e+03
2.517615e+03,3.980613e+03
2.529186e+03,3.949539e+03
2.540757e+03,3.929601e+03
2.552328e+03,3.897355e+03
2.563898e+03,3.872530e+03
2.575469e+03,3.845745e+03
2.587040e+03,3.807133e+03
2.598611e+03,3.774993e+03
2.610182e+03,3.748061e+03
2.621752e+03,3.692512e+03
2.633323e+03,3.664469e+03
2.644894e+03,3.650609e+03
2.656465e+03,3.623052e+03
2.668036e+03,3.603015e+03
2.679606e+03,3.567573e+03
2.691177e+03,3.556908e+03
2.702748e+03,3.512990e+03
2.714319e+03,3.480968e+03
2.725890e+03,3.472504e+03
2.737460e+03,3.416533e+03
2.749031e+03,3.410663e+03
2.760602e+03,3.406559e+03
2.772173e+03,3.351159e+03
2.783744e+03,3.354433e+03
2.795314e+03,3.302988e+03
2.806885e+03,3.292080e+03
2.818456e+03,3.247866e+03
2.830027e+03,3.213487e+03
2.841598e+03,3.209891e+03
2.853168e+03,3.230686e+03
2.864739e+03,3.237032e+03
2.876310e+03,3.153610e+03
2.887881e+03,3.228638e+03
2.899452e+03,3.141112e+03
2.911022e+03,3.124747e+03
2.922593e+03,3.075971e+03
2.934164e+03,3.103482e+03
2.945735e+03,3.032277e+03
2.957306e+03,3.024850e+03
2.968876e+03,3.064680e+03
2.980447e+03,2.986499e+03
2.992018e+03,2.906384e+03
3.003589e+03,2.946356e+03
3.015160e+03,2.928278e+03
3.026730e+03,2.911948e+03
3.038301e+03,2.899535e+03
3.049872e+03,2.868717e+03
3.061443e+03,2.854072e+03
3.073014e+03,2.860250e+03
3.084584e+03,2.795775e+03
3.096155e+03,2.856961e+03
3.107726e+03,2.743909e+03
3.119297e+03,2.813408e+03
3.130868e+03,2.816818e+03
3.142438e+03,2.859828e+03
3.154009e+03,2.807722e+03
3.165580e+03,2.771261e+03
3.177151e+03,2.764329e+03
3.188722e+03,2.817924e+03
3.200292e+03,2.791747e+03
3.211863e+03,0.000000e+00
3.223434e+03,0.000000e+00
3.235005e+03,0.000000e+00
3.246576e+03,0.000000e+00
3.258146e+03,0.000000e+00
3.269717e+03,0.000000e+00
3.281288e+03,0.000000e+00
3.292859e+03,0.000000e+00
3.304430e+03,0.000000e+00
3.316000e+03,0.000000e+00
3.327571e+03,0.000000e+00
3.339142e+03,0.000000e+00
3.350713e+03,0.000000e+00
3.362284e+03,0.000000e+00
3.373854e+03,0.000000e+00
3.385425e+03,0.000000e+00
3.396996e+03,0.000000e+00
3.408567e+03,0.000000e+00
3.420138e+03,0.000000e+00
3.431708e+03,0.000000e+00
3.443279e+03,0.000000e+00
3.454850e+03,0.000000e+00
3.466421e+03,0.000000e+00
3.477992e+03,0.000000e+00
3.489563e+03,0.000000e+00
3.500169e+03,0.000000e+00