Folder: Taff_Bargoed_microplastics_data/RAMAN_data/13042023_r1 (part 5)

File: blue fibre4.CSV
9.931763e+01,0.000000e+00
1.108884e+02,0.000000e+00
1.224592e+02,0.000000e+00
1.340300e+02,0.000000e+00
1.456008e+02,0.000000e+00
1.571716e+02,0.000000e+00
1.687424e+02,0.000000e+00
1.803132e+02,0.000000e+00
1.918840e+02,0.000000e+00
2.034548e+02,2.796995e+03
2.150256e+02,2.774870e+03
2.265964e+02,2.764228e+03
2.381673e+02,2.745336e+03
2.497381e+02,2.710301e+03
2.613088e+02,2.686810e+03
2.728796e+02,2.672128e+03
2.844504e+02,2.650522e+03
2.960212e+02,2.619549e+03
3.075920e+02,2.586079e+03
3.191628e+02,2.568558e+03
3.307336e+02,2.561439e+03
3.423044e+02,2.539139e+03
3.538752e+02,2.508671e+03
3.654461e+02,2.480860e+03
3.770169e+02,2.477502e+03
3.885877e+02,2.428807e+03
4.001585e+02,2.389334e+03
4.117293e+02,2.380305e+03
4.233001e+02,2.363744e+03
4.348709e+02,2.346218e+03
4.464417e+02,2.315961e+03
4.580125e+02,2.301444e+03
4.695833e+02,2.261601e+03
4.811541e+02,2.257145e+03
4.927249e+02,2.227603e+03
5.042957e+02,2.198607e+03
5.158665e+02,2.190456e+03
5.274373e+02,2.163373e+03
5.390081e+02,2.129610e+03
5.505789e+02,2.130150e+03
5.621497e+02,2.114500e+03
5.737205e+02,2.101994e+03
5.852913e+02,2.071633e+03
5.968621e+02,2.054822e+03
6.084329e+02,2.046097e+03
6.200037e+02,2.013693e+03
6.315745e+02,2.001902e+03
6.431453e+02,1.977539e+03
6.547161e+02,1.972126e+03
6.662869e+02,1.940138e+03
6.778577e+02,1.949792e+03
6.894285e+02,1.912662e+03
7.009993e+02,1.908418e+03
7.125701e+02,1.897985e+03
7.241409e+02,1.877119e+03
7.357117e+02,1.852809e+03
7.472825e+02,1.865437e+03
7.588533e+02,1.835144e+03
7.704241e+02,1.828191e+03
7.819949e+02,1.806083e+03
7.935657e+02,1.802349e+03
8.051365e+02,1.775439e+03
8.167073e+02,1.765159e+03
8.282781e+02,1.748297e+03
8.398489e+02,1.736274e+03
8.514197e+02,1.727389e+03
8.629905e+02,1.717151e+03
8.745613e+02,1.707991e+03
8.861321e+02,1.716335e+03
8.977029e+02,1.690591e+03
9.092737e+02,1.668932e+03
9.208445e+02,1.649898e+03
9.324153e+02,1.640884e+03
9.439861e+02,1.632166e+03
9.555569e+02,1.617760e+03
9.671277e+02,1.609255e+03
9.786985e+02,1.605875e+03
9.902693e+02,1.587090e+03
1.001840e+03,1.580853e+03
1.013411e+03,1.560688e+03
1.024982e+03,1.552300e+03
1.036552e+03,1.551075e+03
1.048123e+03,1.527603e+03
1.059694e+03,1.520396e+03
1.071265e+03,1.522459e+03
1.082836e+03,1.514214e+03
1.094406e+03,1.538096e+03
1.105977e+03,1.500940e+03
1.117548e+03,1.500154e+03
1.129119e+03,1.482160e+03
1.140690e+03,1.465166e+03
1.152261e+03,1.466860e+03
1.163831e+03,1.430129e+03
1.175402e+03,1.418128e+03
1.186973e+03,1.412863e+03
1.198544e+03,1.407068e+03
1.210115e+03,1.394910e+03
1.221685e+03,1.388320e+03
1.233256e+03,1.365234e+03
1.244827e+03,1.366912e+03
1.256398e+03,1.364804e+03
1.267969e+03,1.346949e+03
1.279539e+03,1.366235e+03
1.291110e+03,1.342976e+03
1.302681e+03,1.326165e+03
1.314252e+03,1.317641e+03
1.325823e+03,1.311332e+03
1.337393e+03,1.310769e+03
1.348964e+03,1.295323e+03
1.360535e+03,1.289695e+03
1.372106e+03,1.280123e+03
1.383677e+03,1.271307e+03
1.395247e+03,1.242134e+03
1.406818e+03,1.241171e+03
1.418389e+03,1.234023e+03
1.429960e+03,1.214228e+03
1.441531e+03,1.200572e+03
1.453101e+03,1.198073e+03
1.464672e+03,1.198835e+03
1.476243e+03,1.175895e+03
1.487814e+03,1.159652e+03
1.499385e+03,1.152638e+03
1.510955e+03,1.147115e+03
1.522526e+03,1.135518e+03
1.534097e+03,1.119531e+03
1.545668e+03,1.106663e+03
1.557239e+03,1.115204e+03
1.568809e+03,1.113113e+03
1.580380e+03,1.115947e+03
1.591951e+03,1.094529e+03
1.603522e+03,1.088347e+03
1.615093e+03,1.076214e+03
1.626663e+03,1.066666e+03
1.638234e+03,1.047689e+03
1.649805e+03,1.038291e+03
1.661376e+03,1.038755e+03
1.672947e+03,1.022133e+03
1.684517e+03,1.009370e+03
1.696088e+03,1.009590e+03
1.707659e+03,9.916542e+02
1.719230e+03,9.830560e+02
1.730801e+03,9.917131e+02
1.742371e+03,9.675247e+02
1.753942e+03,9.774583e+02
1.765513e+03,9.657445e+02
1.777084e+03,9.477784e+02
1.788655e+03,9.351037e+02
1.800225e+03,9.263713e+02
1.811796e+03,9.219947e+02
1.823367e+03,9.031570e+02
1.834938e+03,9.026419e+02
1.846509e+03,8.951005e+02
1.858079e+03,8.813976e+02
1.869650e+03,8.731271e+02
1.881221e+03,8.573578e+02
1.892792e+03,8.524699e+02
1.904363e+03,8.516067e+02
1.915933e+03,8.367245e+02
1.927504e+03,8.375579e+02
1.939075e+03,8.185303e+02
1.950646e+03,8.299152e+02
1.962217e+03,8.102631e+02
1.973787e+03,8.048395e+02
1.985358e+03,7.940081e+02
1.996929e+03,7.808861e+02
2.008500e+03,7.884678e+02
2.020071e+03,7.742759e+02
2.031641e+03,7.551385e+02
2.043212e+03,7.460201e+02
2.054783e+03,7.589300e+02
2.066354e+03,7.378636e+02
2.077925e+03,7.328087e+02
2.089496e+03,7.330968e+02
2.101066e+03,7.109879e+02
2.112637e+03,7.070178e+02
2.124208e+03,7.097029e+02
2.135779e+03,6.926963e+02
2.147350e+03,6.792805e+02
2.158920e+03,6.730953e+02
2.170491e+03,6.730934e+02
2.182062e+03,6.583634e+02
2.193633e+03,6.615837e+02
2.205204e+03,6.521161e+02
2.216774e+03,6.551111e+02
2.228345e+03,6.356046e+02
2.239916e+03,6.221281e+02
2.251487e+03,6.222538e+02
2.263058e+03,6.219489e+02
2.274628e+03,5.935624e+02
2.286199e+03,5.956487e+02
2.297770e+03,5.880911e+02
2.309341e+03,5.853290e+02
2.320912e+03,5.832987e+02
2.332482e+03,5.700911e+02
2.344053e+03,5.681701e+02
2.355624e+03,5.580828e+02
2.367195e+03,5.512338e+02
2.378766e+03,5.448702e+02
2.390336e+03,5.405857e+02
2.401907e+03,5.351287e+02
2.413478e+03,5.372322e+02
2.425049e+03,5.331800e+02
2.436620e+03,5.276701e+02
2.448190e+03,5.193883e+02
2.459761e+03,5.001648e+02
2.471332e+03,5.090187e+02
2.482903e+03,4.982252e+02
2.494474e+03,5.078413e+02
2.506044e+03,4.945532e+02
2.517615e+03,4.985443e+02
2.529186e+03,4.791199e+02
2.540757e+03,4.847343e+02
2.552328e+03,4.923003e+02
2.563898e+03,4.858724e+02
2.575469e+03,4.860499e+02
2.587040e+03,4.648599e+02
2.598611e+03,4.591546e+02
2.610182e+03,4.625916e+02
2.621752e+03,4.611043e+02
2.633323e+03,4.412684e+02
2.644894e+03,4.588784e+02
2.656465e+03,4.505089e+02
2.668036e+03,4.396748e+02
2.679606e+03,4.333318e+02
2.691177e+03,4.512429e+02
2.702748e+03,4.165416e+02
2.714319e+03,4.250868e+02
2.725890e+03,4.350258e+02
2.737460e+03,4.252702e+02
2.749031e+03,4.297684e+02
2.760602e+03,4.231777e+02
2.772173e+03,4.109849e+02
2.783744e+03,4.119029e+02
2.795314e+03,4.086901e+02
2.806885e+03,4.116819e+02
2.818456e+03,4.096911e+02
2.830027e+03,4.187222e+02
2.841598e+03,3.980772e+02
2.853168e+03,4.136284e+02
2.864739e+03,4.134350e+02
2.876310e+03,4.191910e+02
2.887881e+03,4.382203e+02
2.899452e+03,4.211276e+02
2.911022e+03,4.232266e+02
2.922593e+03,4.025103e+02
2.934164e+03,3.942160e+02
2.945735e+03,4.029708e+02
2.957306e+03,4.395000e+02
2.968876e+03,3.862435e+02
2.980447e+03,3.784308e+02
2.992018e+03,3.845197e+02
3.003589e+03,3.489456e+02
3.015160e+03,3.775739e+02
3.026730e+03,3.618481e+02
3.038301e+03,3.486505e+02
3.049872e+03,3.824934e+02
3.061443e+03,3.735074e+02
3.073014e+03,3.819589e+02
3.084584e+03,3.322860e+02
3.096155e+03,3.691399e+02
3.107726e+03,3.683075e+02
3.119297e+03,3.686383e+02
3.130868e+03,3.959356e+02
3.142438e+03,3.776395e+02
3.154009e+03,3.479611e+02
3.165580e+03,3.755711e+02
3.177151e+03,3.747391e+02
3.188722e+03,3.533024e+02
3.200292e+03,3.960041e+02
3.211863e+03,0.000000e+00
3.223434e+03,0.000000e+00
3.235005e+03,0.000000e+00
3.246576e+03,0.000000e+00
3.258146e+03,0.000000e+00
3.269717e+03,0.000000e+00
3.281288e+03,0.000000e+00
3.292859e+03,0.000000e+00
3.304430e+03,0.000000e+00
3.316000e+03,0.000000e+00
3.327571e+03,0.000000e+00
3.339142e+03,0.000000e+00
3.350713e+03,0.000000e+00
3.362284e+03,0.000000e+00
3.373854e+03,0.000000e+00
3.385425e+03,0.000000e+00
3.396996e+03,0.000000e+00
3.408567e+03,0.000000e+00
3.420138e+03,0.000000e+00
3.431708e+03,0.000000e+00
3.443279e+03,0.000000e+00
3.454850e+03,0.000000e+00
3.466421e+03,0.000000e+00
3.477992e+03,0.000000e+00
3.489563e+03,0.000000e+00
3.500169e+03,0.000000e+00

File: blue fibre5.CSV
9.931763e+01,0.000000e+00
1.108884e+02,0.000000e+00
1.224592e+02,0.000000e+00
1.340300e+02,0.000000e+00
1.456008e+02,0.000000e+00
1.571716e+02,0.000000e+00
1.687424e+02,0.000000e+00
1.803132e+02,0.000000e+00
1.918840e+02,0.000000e+00
2.034548e+02,1.052034e+04
2.150256e+02,1.057994e+04
2.265964e+02,1.068749e+04
2.381673e+02,1.083688e+04
2.497381e+02,1.092293e+04
2.613088e+02,1.102010e+04
2.728796e+02,1.114520e+04
2.844504e+02,1.128402e+04
2.960212e+02,1.139113e+04
3.075920e+02,1.148884e+04
3.191628e+02,1.160888e+04
3.307336e+02,1.175929e+04
3.423044e+02,1.189110e+04
3.538752e+02,1.203903e+04
3.654461e+02,1.215143e+04
3.770169e+02,1.231209e+04
3.885877e+02,1.246715e+04
4.001585e+02,1.259571e+04
4.117293e+02,1.274472e+04
4.233001e+02,1.288676e+04
4.348709e+02,1.304558e+04
4.464417e+02,1.321787e+04
4.580125e+02,1.333318e+04
4.695833e+02,1.347680e+04
4.811541e+02,1.354101e+04
4.927249e+02,1.359303e+04
5.042957e+02,1.363733e+04
5.158665e+02,1.369608e+04
5.274373e+02,1.367273e+04
5.390081e+02,1.360216e+04
5.505789e+02,1.359083e+04
5.621497e+02,1.355706e+04
5.737205e+02,1.346132e+04
5.852913e+02,1.341679e+04
5.968621e+02,1.340608e+04
6.084329e+02,1.335064e+04
6.200037e+02,1.321329e+04
6.315745e+02,1.309558e+04
6.431453e+02,1.298888e+04
6.547161e+02,1.286846e+04
6.662869e+02,1.275484e+04
6.778577e+02,1.259796e+04
6.894285e+02,1.252133e+04
7.009993e+02,1.242793e+04
7.125701e+02,1.233545e+04
7.241409e+02,1.220743e+04
7.357117e+02,1.206801e+04
7.472825e+02,1.198204e+04
7.588533e+02,1.186810e+04
7.704241e+02,1.173759e+04
7.819949e+02,1.166007e+04
7.935657e+02,1.156363e+04
8.051365e+02,1.143500e+04
8.167073e+02,1.135007e+04
8.282781e+02,1.123383e+04
8.398489e+02,1.115680e+04
8.514197e+02,1.104603e+04
8.629905e+02,1.095030e+04
8.745613e+02,1.087524e+04
8.861321e+02,1.078651e+04
8.977029e+02,1.067064e+04
9.092737e+02,1.055381e+04
9.208445e+02,1.042377e+04
9.324153e+02,1.038134e+04
9.439861e+02,1.027019e+04
9.555569e+02,1.014575e+04
9.671277e+02,1.008930e+04
9.786985e+02,1.001539e+04
9.902693e+02,9.900354e+03
1.001840e+03,9.781983e+03
1.013411e+03,9.719084e+03
1.024982e+03,9.641466e+03
1.036552e+03,9.563700e+03
1.048123e+03,9.460720e+03
1.059694e+03,9.347519e+03
1.071265e+03,9.295989e+03
1.082836e+03,9.230925e+03
1.094406e+03,9.126697e+03
1.105977e+03,9.048943e+03
1.117548e+03,9.017691e+03
1.129119e+03,8.863171e+03
1.140690e+03,8.774108e+03
1.152261e+03,8.709886e+03
1.163831e+03,8.641849e+03
1.175402e+03,8.509698e+03
1.186973e+03,8.441861e+03
1.198544e+03,8.403549e+03
1.210115e+03,8.306577e+03
1.221685e+03,8.225202e+03
1.233256e+03,8.103475e+03
1.244827e+03,8.061632e+03
1.256398e+03,8.000032e+03
1.267969e+03,7.902378e+03
1.279539e+03,7.828225e+03
1.291110e+03,7.776515e+03
1.302681e+03,7.675624e+03
1.314252e+03,7.624881e+03
1.325823e+03,7.536011e+03
1.337393e+03,7.485104e+03
1.348964e+03,7.425250e+03
1.360535e+03,7.306060e+03
1.372106e+03,7.277094e+03
1.383677e+03,7.209110e+03
1.395247e+03,7.114611e+03
1.406818e+03,7.049582e+03
1.418389e+03,7.014601e+03
1.429960e+03,6.913542e+03
1.441531e+03,6.821326e+03
1.453101e+03,6.748904e+03
1.464672e+03,6.723450e+03
1.476243e+03,6.669907e+03
1.487814e+03,6.545732e+03
1.499385e+03,6.490664e+03
1.510955e+03,6.427087e+03
1.522526e+03,6.358421e+03
1.534097e+03,6.298386e+03
1.545668e+03,6.215549e+03
1.557239e+03,6.200258e+03
1.568809e+03,6.210518e+03
1.580380e+03,6.141757e+03
1.591951e+03,5.966762e+03
1.603522e+03,5.948443e+03
1.615093e+03,5.887263e+03
1.626663e+03,5.768169e+03
1.638234e+03,5.706812e+03
1.649805e+03,5.645884e+03
1.661376e+03,5.604709e+03
1.672947e+03,5.571764e+03
1.684517e+03,5.492095e+03
1.696088e+03,5.427236e+03
1.707659e+03,5.377053e+03
1.719230e+03,5.281347e+03
1.730801e+03,5.254275e+03
1.742371e+03,5.173034e+03
1.753942e+03,5.122804e+03
1.765513e+03,5.082213e+03
1.777084e+03,5.012295e+03
1.788655e+03,4.963804e+03
1.800225e+03,4.914501e+03
1.811796e+03,4.886690e+03
1.823367e+03,4.791275e+03
1.834938e+03,4.706717e+03
1.846509e+03,4.683752e+03
1.858079e+03,4.632409e+03
1.869650e+03,4.557403e+03
1.881221e+03,4.512083e+03
1.892792e+03,4.450021e+03
1.904363e+03,4.399049e+03
1.915933e+03,4.344374e+03
1.927504e+03,4.318381e+03
1.939075e+03,4.241405e+03
1.950646e+03,4.168195e+03
1.962217e+03,4.133533e+03
1.973787e+03,4.100781e+03
1.985358e+03,4.050848e+03
1.996929e+03,3.960974e+03
2.008500e+03,3.960038e+03
2.020071e+03,3.866550e+03
2.031641e+03,3.831151e+03
2.043212e+03,3.758017e+03
2.054783e+03,3.721862e+03
2.066354e+03,3.674556e+03
2.077925e+03,3.618579e+03
2.089496e+03,3.592542e+03
2.101066e+03,3.553676e+03
2.112637e+03,3.479124e+03
2.124208e+03,3.447017e+03
2.135779e+03,3.417519e+03
2.147350e+03,3.324292e+03
2.158920e+03,3.312181e+03
2.170491e+03,3.284122e+03
2.182062e+03,3.209332e+03
2.193633e+03,3.168387e+03
2.205204e+03,3.143073e+03
2.216774e+03,3.075732e+03
2.228345e+03,3.017262e+03
2.239916e+03,2.981652e+03
2.251487e+03,2.943605e+03
2.263058e+03,2.886294e+03
2.274628e+03,2.854436e+03
2.286199e+03,2.794731e+03
2.297770e+03,2.764234e+03
2.309341e+03,2.740182e+03
2.320912e+03,2.692787e+03
2.332482e+03,2.653979e+03
2.344053e+03,2.622552e+03
2.355624e+03,2.572869e+03
2.367195e+03,2.535848e+03
2.378766e+03,2.506527e+03
2.390336e+03,2.466100e+03
2.401907e+03,2.431875e+03
2.413478e+03,2.399475e+03
2.425049e+03,2.384793e+03
2.436620e+03,2.348379e+03
2.448190e+03,2.305634e+03
2.459761e+03,2.271872e+03
2.471332e+03,2.256615e+03
2.482903e+03,2.199120e+03
2.494474e+03,2.198194e+03
2.506044e+03,2.161569e+03
2.517615e+03,2.141264e+03
2.529186e+03,2.103980e+03
2.540757e+03,2.076605e+03
2.552328e+03,2.059439e+03
2.563898e+03,2.057861e+03
2.575469e+03,2.018109e+03
2.587040e+03,1.994451e+03
2.598611e+03,1.975541e+03
2.610182e+03,1.958778e+03
2.621752e+03,1.906354e+03
2.633323e+03,1.901895e+03
2.644894e+03,1.878607e+03
2.656465e+03,1.876354e+03
2.668036e+03,1.856586e+03
2.679606e+03,1.824871e+03
2.691177e+03,1.793389e+03
2.702748e+03,1.779083e+03
2.714319e+03,1.741453e+03
2.725890e+03,1.746068e+03
2.737460e+03,1.709484e+03
2.749031e+03,1.696117e+03
2.760602e+03,1.678144e+03
2.772173e+03,1.678523e+03
2.783744e+03,1.635256e+03
2.795314e+03,1.647455e+03
2.806885e+03,1.649435e+03
2.818456e+03,1.641365e+03
2.830027e+03,1.614728e+03
2.841598e+03,1.567301e+03
2.853168e+03,1.562707e+03
2.864739e+03,1.580950e+03
2.876310e+03,1.592865e+03
2.887881e+03,1.562895e+03
2.899452e+03,1.559407e+03
2.911022e+03,1.533326e+03
2.922593e+03,1.501700e+03
2.934164e+03,1.491716e+03
2.945735e+03,1.479137e+03
2.957306e+03,1.538770e+03
2.968876e+03,1.417952e+03
2.980447e+03,1.449951e+03
2.992018e+03,1.431985e+03
3.003589e+03,1.393825e+03
3.015160e+03,1.437098e+03
3.026730e+03,1.412733e+03
3.038301e+03,1.396053e+03
3.049872e+03,1.406325e+03
3.061443e+03,1.397908e+03
3.073014e+03,1.410043e+03
3.084584e+03,1.402461e+03
3.096155e+03,1.400873e+03
3.107726e+03,1.425820e+03
3.119297e+03,1.356449e+03
3.130868e+03,1.351414e+03
3.142438e+03,1.393922e+03
3.154009e+03,1.436928e+03
3.165580e+03,1.444010e+03
3.177151e+03,1.424280e+03
3.188722e+03,1.417653e+03
3.200292e+03,1.498232e+03
3.211863e+03,0.000000e+00
3.223434e+03,0.000000e+00
3.235005e+03,0.000000e+00
3.246576e+03,0.000000e+00
3.258146e+03,0.000000e+00
3.269717e+03,0.000000e+00
3.281288e+03,0.000000e+00
3.292859e+03,0.000000e+00
3.304430e+03,0.000000e+00
3.316000e+03,0.000000e+00
3.327571e+03,0.000000e+00
3.339142e+03,0.000000e+00
3.350713e+03,0.000000e+00
3.362284e+03,0.000000e+00
3.373854e+03,0.000000e+00
3.385425e+03,0.000000e+00
3.396996e+03,0.000000e+00
3.408567e+03,0.000000e+00
3.420138e+03,0.000000e+00
3.431708e+03,0.000000e+00
3.443279e+03,0.000000e+00
3.454850e+03,0.000000e+00
3.466421e+03,0.000000e+00
3.477992e+03,0.000000e+00
3.489563e+03,0.000000e+00
3.500169e+03,0.000000e+00

File: blue fibre6.CSV
9.931763e+01,0.000000e+00
1.108884e+02,0.000000e+00
1.224592e+02,0.000000e+00
1.340300e+02,0.000000e+00
1.456008e+02,0.000000e+00
1.571716e+02,0.000000e+00
1.687424e+02,0.000000e+00
1.803132e+02,0.000000e+00
1.918840e+02,0.000000e+00
2.034548e+02,8.398667e+03
2.150256e+02,8.327139e+03
2.265964e+02,8.247928e+03
2.381673e+02,8.216091e+03
2.497381e+02,8.168162e+03
2.613088e+02,8.056942e+03
2.728796e+02,7.994963e+03
2.844504e+02,7.890161e+03
2.960212e+02,7.840400e+03
3.075920e+02,7.756375e+03
3.191628e+02,7.676363e+03
3.307336e+02,7.618406e+03
3.423044e+02,7.532441e+03
3.538752e+02,7.455711e+03
3.654461e+02,7.356208e+03
3.770169e+02,7.323170e+03
3.885877e+02,7.250605e+03
4.001585e+02,7.152939e+03
4.117293e+02,7.063009e+03
4.233001e+02,7.010312e+03
4.348709e+02,6.941653e+03
4.464417e+02,6.870705e+03
4.580125e+02,6.801985e+03
4.695833e+02,6.696839e+03
4.811541e+02,6.659670e+03
4.927249e+02,6.621614e+03
5.042957e+02,6.532444e+03
5.158665e+02,6.497388e+03
5.274373e+02,6.402472e+03
5.390081e+02,6.320271e+03
5.505789e+02,6.251748e+03
5.621497e+02,6.209389e+03
5.737205e+02,6.136063e+03
5.852913e+02,6.079704e+03
5.968621e+02,6.012547e+03
6.084329e+02,5.987571e+03
6.200037e+02,5.913057e+03
6.315745e+02,5.843105e+03
6.431453e+02,5.789774e+03
6.547161e+02,5.743318e+03
6.662869e+02,5.687357e+03
6.778577e+02,5.624276e+03
6.894285e+02,5.565356e+03
7.009993e+02,5.526616e+03
7.125701e+02,5.472417e+03
7.241409e+02,5.467017e+03
7.357117e+02,5.389920e+03
7.472825e+02,5.323093e+03
7.588533e+02,5.292705e+03
7.704241e+02,5.241417e+03
7.819949e+02,5.215451e+03
7.935657e+02,5.170589e+03
8.051365e+02,5.107970e+03
8.167073e+02,5.049374e+03
8.282781e+02,4.994998e+03
8.398489e+02,4.972006e+03
8.514197e+02,4.939807e+03
8.629905e+02,4.873125e+03
8.745613e+02,4.822131e+03
8.861321e+02,4.813244e+03
8.977029e+02,4.759126e+03
9.092737e+02,4.715764e+03
9.208445e+02,4.668250e+03
9.324153e+02,4.627819e+03
9.439861e+02,4.586966e+03
9.555569e+02,4.551049e+03
9.671277e+02,4.518592e+03
9.786985e+02,4.463451e+03
9.902693e+02,4.442047e+03
1.001840e+03,4.401226e+03
1.013411e+03,4.337690e+03
1.024982e+03,4.333084e+03
1.036552e+03,4.283426e+03
1.048123e+03,4.242443e+03
1.059694e+03,4.217318e+03
1.071265e+03,4.171157e+03
1.082836e+03,4.139071e+03
1.094406e+03,4.117201e+03
1.105977e+03,4.086584e+03
1.117548e+03,4.058828e+03
1.129119e+03,4.003184e+03
1.140690e+03,3.981022e+03
1.152261e+03,3.955951e+03
1.163831e+03,3.891383e+03
1.175402e+03,3.849110e+03
1.186973e+03,3.814128e+03
1.198544e+03,3.794885e+03
1.210115e+03,3.763896e+03
1.221685e+03,3.720522e+03
1.233256e+03,3.694235e+03
1.244827e+03,3.651553e+03
1.256398e+03,3.615288e+03
1.267969e+03,3.586121e+03
1.279539e+03,3.581600e+03
1.291110e+03,3.549423e+03
1.302681e+03,3.502542e+03
1.314252e+03,3.488030e+03
1.325823e+03,3.453591e+03
1.337393e+03,3.443358e+03
1.348964e+03,3.407052e+03
1.360535e+03,3.343917e+03
1.372106e+03,3.337565e+03
1.383677e+03,3.308485e+03
1.395247e+03,3.263161e+03
1.406818e+03,3.233081e+03
1.418389e+03,3.197936e+03
1.429960e+03,3.166771e+03
1.441531e+03,3.156100e+03
1.453101e+03,3.093727e+03
1.464672e+03,3.067816e+03
1.476243e+03,3.079036e+03
1.487814e+03,3.025622e+03
1.499385e+03,2.987406e+03
1.510955e+03,2.950875e+03
1.522526e+03,2.929300e+03
1.534097e+03,2.912079e+03
1.545668e+03,2.868378e+03
1.557239e+03,2.856063e+03
1.568809e+03,2.832630e+03
1.580380e+03,2.807263e+03
1.591951e+03,2.787411e+03
1.603522e+03,2.757329e+03
1.615093e+03,2.717979e+03
1.626663e+03,2.688187e+03
1.638234e+03,2.663477e+03
1.649805e+03,2.642172e+03
1.661376e+03,2.594592e+03
1.672947e+03,2.582490e+03
1.684517e+03,2.548060e+03
1.696088e+03,2.505004e+03
1.707659e+03,2.508456e+03
1.719230e+03,2.469814e+03
1.730801e+03,2.436215e+03
1.742371e+03,2.409398e+03
1.753942e+03,2.405312e+03
1.765513e+03,2.374544e+03
1.777084e+03,2.351886e+03
1.788655e+03,2.324679e+03
1.800225e+03,2.281340e+03
1.811796e+03,2.253850e+03
1.823367e+03,2.241347e+03
1.834938e+03,2.220048e+03
1.846509e+03,2.180470e+03
1.858079e+03,2.155031e+03
1.869650e+03,2.140490e+03
1.881221e+03,2.120049e+03
1.892792e+03,2.101193e+03
1.904363e+03,2.052731e+03
1.915933e+03,2.028544e+03
1.927504e+03,2.037622e+03
1.939075e+03,1.999429e+03
1.950646e+03,1.953231e+03
1.962217e+03,1.935782e+03
1.973787e+03,1.926702e+03
1.985358e+03,1.900260e+03
1.996929e+03,1.868629e+03
2.008500e+03,1.846837e+03
2.020071e+03,1.828327e+03
2.031641e+03,1.795444e+03
2.043212e+03,1.773096e+03
2.054783e+03,1.751422e+03
2.066354e+03,1.718701e+03
2.077925e+03,1.707368e+03
2.089496e+03,1.687583e+03
2.101066e+03,1.676680e+03
2.112637e+03,1.642327e+03
2.124208e+03,1.636589e+03
2.135779e+03,1.614330e+03
2.147350e+03,1.591490e+03
2.158920e+03,1.564789e+03
2.170491e+03,1.553154e+03
2.182062e+03,1.509808e+03
2.193633e+03,1.495896e+03
2.205204e+03,1.486598e+03
2.216774e+03,1.461546e+03
2.228345e+03,1.436914e+03
2.239916e+03,1.427389e+03
2.251487e+03,1.407319e+03
2.263058e+03,1.370161e+03
2.274628e+03,1.336460e+03
2.286199e+03,1.337241e+03
2.297770e+03,1.327078e+03
2.309341e+03,1.307217e+03
2.320912e+03,1.298904e+03
2.332482e+03,1.264987e+03
2.344053e+03,1.262967e+03
2.355624e+03,1.242682e+03
2.367195e+03,1.225723e+03
2.378766e+03,1.196609e+03
2.390336e+03,1.187932e+03
2.401907e+03,1.163871e+03
2.413478e+03,1.169519e+03
2.425049e+03,1.146189e+03
2.436620e+03,1.125703e+03
2.448190e+03,1.123760e+03
2.459761e+03,1.107805e+03
2.471332e+03,1.093289e+03
2.482903e+03,1.076078e+03
2.494474e+03,1.063572e+03
2.506044e+03,1.064939e+03
2.517615e+03,1.039507e+03
2.529186e+03,1.023254e+03
2.540757e+03,1.008646e+03
2.552328e+03,1.024315e+03
2.563898e+03,9.961608e+02
2.575469e+03,9.929869e+02
2.587040e+03,9.740286e+02
2.598611e+03,9.667527e+02
2.610182e+03,9.501091e+02
2.621752e+03,9.426542e+02
2.633323e+03,9.380283e+02
2.644894e+03,9.121537e+02
2.656465e+03,9.271314e+02
2.668036e+03,9.083383e+02
2.679606e+03,9.052455e+02
2.691177e+03,8.845212e+02
2.702748e+03,8.848293e+02
2.714319e+03,8.755840e+02
2.725890e+03,8.743727e+02
2.737460e+03,8.527048e+02
2.749031e+03,8.470667e+02
2.760602e+03,8.506258e+02
2.772173e+03,8.290080e+02
2.783744e+03,8.104151e+02
2.795314e+03,8.441464e+02
2.806885e+03,7.984806e+02
2.818456e+03,8.152940e+02
2.830027e+03,7.976663e+02
2.841598e+03,7.829848e+02
2.853168e+03,7.898759e+02
2.864739e+03,7.828657e+02
2.876310e+03,8.043246e+02
2.887881e+03,8.003859e+02
2.899452e+03,7.976777e+02
2.911022e+03,7.886443e+02
2.922593e+03,7.905557e+02
2.934164e+03,7.619152e+02
2.945735e+03,7.676461e+02
2.957306e+03,7.903516e+02
2.968876e+03,7.459974e+02
2.980447e+03,7.311710e+02
2.992018e+03,7.267463e+02
3.003589e+03,7.284925e+02
3.015160e+03,7.405226e+02
3.026730e+03,7.006243e+02
3.038301e+03,7.137261e+02
3.049872e+03,7.270284e+02
3.061443e+03,7.114121e+02
3.073014e+03,7.322684e+02
3.084584e+03,7.072385e+02
3.096155e+03,7.212664e+02
3.107726e+03,6.939616e+02
3.119297e+03,7.223651e+02
3.130868e+03,7.154803e+02
3.142438e+03,7.376979e+02
3.154009e+03,7.229805e+02
3.165580e+03,7.046018e+02
3.177151e+03,7.057672e+02
3.188722e+03,7.537932e+02
3.200292e+03,7.615329e+02
3.211863e+03,0.000000e+00
3.223434e+03,0.000000e+00
3.235005e+03,0.000000e+00
3.246576e+03,0.000000e+00
3.258146e+03,0.000000e+00
3.269717e+03,0.000000e+00
3.281288e+03,0.000000e+00
3.292859e+03,0.000000e+00
3.304430e+03,0.000000e+00
3.316000e+03,0.000000e+00
3.327571e+03,0.000000e+00
3.339142e+03,0.000000e+00
3.350713e+03,0.000000e+00
3.362284e+03,0.000000e+00
3.373854e+03,0.000000e+00
3.385425e+03,0.000000e+00
3.396996e+03,0.000000e+00
3.408567e+03,0.000000e+00
3.420138e+03,0.000000e+00
3.431708e+03,0.000000e+00
3.443279e+03,0.000000e+00
3.454850e+03,0.000000e+00
3.466421e+03,0.000000e+00
3.477992e+03,0.000000e+00
3.489563e+03,0.000000e+00
3.500169e+03,0.000000e+00