Folder: Taff_Bargoed_microplastics_data/RAMAN_data/13042023_r1 (part 3)

File: black fibre10.CSV
9.931763e+01,0.000000e+00
1.108884e+02,0.000000e+00
1.224592e+02,0.000000e+00
1.340300e+02,0.000000e+00
1.456008e+02,0.000000e+00
1.571716e+02,0.000000e+00
1.687424e+02,0.000000e+00
1.803132e+02,0.000000e+00
1.918840e+02,0.000000e+00
2.034548e+02,1.052034e+04
2.150256e+02,1.057994e+04
2.265964e+02,1.068749e+04
2.381673e+02,1.083688e+04
2.497381e+02,1.092293e+04
2.613088e+02,1.102010e+04
2.728796e+02,1.114520e+04
2.844504e+02,1.128402e+04
2.960212e+02,1.139113e+04
3.075920e+02,1.148884e+04
3.191628e+02,1.160888e+04
3.307336e+02,1.175929e+04
3.423044e+02,1.189110e+04
3.538752e+02,1.203903e+04
3.654461e+02,1.215143e+04
3.770169e+02,1.231209e+04
3.885877e+02,1.246715e+04
4.001585e+02,1.259577e+04
4.117293e+02,1.266041e+04
4.233001e+02,1.273395e+04
4.348709e+02,1.274104e+04
4.464417e+02,1.273928e+04
4.580125e+02,1.270956e+04
4.695833e+02,1.268672e+04
4.811541e+02,1.263315e+04
4.927249e+02,1.262895e+04
5.042957e+02,1.253683e+04
5.158665e+02,1.251159e+04
5.274373e+02,1.232729e+04
5.390081e+02,1.222361e+04
5.505789e+02,1.212083e+04
5.621497e+02,1.204238e+04
5.737205e+02,1.190359e+04
5.852913e+02,1.183521e+04
5.968621e+02,1.168392e+04
6.084329e+02,1.162304e+04
6.200037e+02,1.147337e+04
6.315745e+02,1.138067e+04
6.431453e+02,1.120374e+04
6.547161e+02,1.116042e+04
6.662869e+02,1.108562e+04
6.778577e+02,1.096226e+04
6.894285e+02,1.083767e+04
7.009993e+02,1.081553e+04
7.125701e+02,1.072757e+04
7.241409e+02,1.062813e+04
7.357117e+02,1.054815e+04
7.472825e+02,1.048081e+04
7.588533e+02,1.036139e+04
7.704241e+02,1.031375e+04
7.819949e+02,1.021174e+04
7.935657e+02,1.011706e+04
8.051365e+02,1.003808e+04
8.167073e+02,9.962160e+03
8.282781e+02,9.865799e+03
8.398489e+02,9.831647e+03
8.514197e+02,9.744941e+03
8.629905e+02,9.638106e+03
8.745613e+02,9.594067e+03
8.861321e+02,9.528821e+03
8.977029e+02,9.465493e+03
9.092737e+02,9.377354e+03
9.208445e+02,9.327290e+03
9.324153e+02,9.268190e+03
9.439861e+02,9.238138e+03
9.555569e+02,9.089669e+03
9.671277e+02,9.085290e+03
9.786985e+02,9.039428e+03
9.902693e+02,8.931996e+03
1.001840e+03,8.878254e+03
1.013411e+03,8.794176e+03
1.024982e+03,8.776675e+03
1.036552e+03,8.678232e+03
1.048123e+03,8.625724e+03
1.059694e+03,8.649199e+03
1.071265e+03,8.606080e+03
1.082836e+03,8.546161e+03
1.094406e+03,8.478558e+03
1.105977e+03,8.434030e+03
1.117548e+03,8.397877e+03
1.129119e+03,8.331954e+03
1.140690e+03,8.325359e+03
1.152261e+03,8.299988e+03
1.163831e+03,8.279951e+03
1.175402e+03,8.146263e+03
1.186973e+03,8.087610e+03
1.198544e+03,8.094506e+03
1.210115e+03,8.012893e+03
1.221685e+03,7.968264e+03
1.233256e+03,7.884357e+03
1.244827e+03,7.855860e+03
1.256398e+03,7.797357e+03
1.267969e+03,7.750268e+03
1.279539e+03,7.734471e+03
1.291110e+03,7.712131e+03
1.302681e+03,7.659881e+03
1.314252e+03,7.648717e+03
1.325823e+03,7.618748e+03
1.337393e+03,7.570773e+03
1.348964e+03,7.496568e+03
1.360535e+03,7.420123e+03
1.372106e+03,7.394367e+03
1.383677e+03,7.321944e+03
1.395247e+03,7.252024e+03
1.406818e+03,7.187317e+03
1.418389e+03,7.140697e+03
1.429960e+03,7.087780e+03
1.441531e+03,7.042628e+03
1.453101e+03,6.969706e+03
1.464672e+03,6.933497e+03
1.476243e+03,6.887214e+03
1.487814e+03,6.821983e+03
1.499385e+03,6.777522e+03
1.510955e+03,6.704823e+03
1.522526e+03,6.692055e+03
1.534097e+03,6.642179e+03
1.545668e+03,6.572284e+03
1.557239e+03,6.544117e+03
1.568809e+03,6.484761e+03
1.580380e+03,6.464962e+03
1.591951e+03,6.330620e+03
1.603522e+03,6.300026e+03
1.615093e+03,6.264005e+03
1.626663e+03,6.157083e+03
1.638234e+03,6.093923e+03
1.649805e+03,5.989421e+03
1.661376e+03,5.964397e+03
1.672947e+03,5.886277e+03
1.684517e+03,5.829596e+03
1.696088e+03,5.811886e+03
1.707659e+03,5.759585e+03
1.719230e+03,5.677581e+03
1.730801e+03,5.633039e+03
1.742371e+03,5.585113e+03
1.753942e+03,5.510277e+03
1.765513e+03,5.470776e+03
1.777084e+03,5.396880e+03
1.788655e+03,5.328284e+03
1.800225e+03,5.285336e+03
1.811796e+03,5.221003e+03
1.823367e+03,5.135045e+03
1.834938e+03,5.092478e+03
1.846509e+03,5.067110e+03
1.858079e+03,4.984849e+03
1.869650e+03,4.930994e+03
1.881221e+03,4.871194e+03
1.892792e+03,4.825873e+03
1.904363e+03,4.794140e+03
1.915933e+03,4.718030e+03
1.927504e+03,4.652682e+03
1.939075e+03,4.590878e+03
1.950646e+03,4.526167e+03
1.962217e+03,4.455344e+03
1.973787e+03,4.403944e+03
1.985358e+03,4.388352e+03
1.996929e+03,4.307142e+03
2.008500e+03,4.290459e+03
2.020071e+03,4.203729e+03
2.031641e+03,4.184864e+03
2.043212e+03,4.133725e+03
2.054783e+03,4.058653e+03
2.066354e+03,4.018613e+03
2.077925e+03,3.979594e+03
2.089496e+03,3.940646e+03
2.101066e+03,3.849458e+03
2.112637e+03,3.831552e+03
2.124208e+03,3.777013e+03
2.135779e+03,3.730395e+03
2.147350e+03,3.643634e+03
2.158920e+03,3.629970e+03
2.170491e+03,3.585603e+03
2.182062e+03,3.521752e+03
2.193633e+03,3.457006e+03
2.205204e+03,3.451669e+03
2.216774e+03,3.411186e+03
2.228345e+03,3.374717e+03
2.239916e+03,3.319881e+03
2.251487e+03,3.308732e+03
2.263058e+03,3.217858e+03
2.274628e+03,3.201368e+03
2.286199e+03,3.157484e+03
2.297770e+03,3.129231e+03
2.309341e+03,3.043765e+03
2.320912e+03,3.040450e+03
2.332482e+03,3.005018e+03
2.344053e+03,2.971055e+03
2.355624e+03,2.909107e+03
2.367195e+03,2.886215e+03
2.378766e+03,2.853499e+03
2.390336e+03,2.819471e+03
2.401907e+03,2.768844e+03
2.413478e+03,2.748888e+03
2.425049e+03,2.742551e+03
2.436620e+03,2.685893e+03
2.448190e+03,2.650493e+03
2.459761e+03,2.637500e+03
2.471332e+03,2.614160e+03
2.482903e+03,2.587638e+03
2.494474e+03,2.545280e+03
2.506044e+03,2.520518e+03
2.517615e+03,2.528371e+03
2.529186e+03,2.459188e+03
2.540757e+03,2.424688e+03
2.552328e+03,2.418989e+03
2.563898e+03,2.378767e+03
2.575469e+03,2.372755e+03
2.587040e+03,2.344753e+03
2.598611e+03,2.333419e+03
2.610182e+03,2.319819e+03
2.621752e+03,2.309445e+03
2.633323e+03,2.283548e+03
2.644894e+03,2.273779e+03
2.656465e+03,2.251542e+03
2.668036e+03,2.220895e+03
2.679606e+03,2.225323e+03
2.691177e+03,2.150199e+03
2.702748e+03,2.147386e+03
2.714319e+03,2.131315e+03
2.725890e+03,2.103717e+03
2.737460e+03,2.090755e+03
2.749031e+03,2.110353e+03
2.760602e+03,2.072924e+03
2.772173e+03,2.063519e+03
2.783744e+03,2.002547e+03
2.795314e+03,2.014240e+03
2.806885e+03,2.037703e+03
2.818456e+03,1.960972e+03
2.830027e+03,1.965510e+03
2.841598e+03,1.981608e+03
2.853168e+03,1.956739e+03
2.864739e+03,1.927667e+03
2.876310e+03,1.939807e+03
2.887881e+03,1.917450e+03
2.899452e+03,1.909178e+03
2.911022e+03,1.874112e+03
2.922593e+03,1.853402e+03
2.934164e+03,1.856262e+03
2.945735e+03,1.851878e+03
2.957306e+03,1.850892e+03
2.968876e+03,1.842243e+03
2.980447e+03,1.771801e+03
2.992018e+03,1.749308e+03
3.003589e+03,1.817739e+03
3.015160e+03,1.763147e+03
3.026730e+03,1.735792e+03
3.038301e+03,1.744799e+03
3.049872e+03,1.741272e+03
3.061443e+03,1.730232e+03
3.073014e+03,1.725523e+03
3.084584e+03,1.737602e+03
3.096155e+03,1.698712e+03
3.107726e+03,1.655475e+03
3.119297e+03,1.715571e+03
3.130868e+03,1.718605e+03
3.142438e+03,1.732543e+03
3.154009e+03,1.652522e+03
3.165580e+03,1.673603e+03
3.177151e+03,1.715507e+03
3.188722e+03,1.739103e+03
3.200292e+03,1.762025e+03
3.211863e+03,0.000000e+00
3.223434e+03,0.000000e+00
3.235005e+03,0.000000e+00
3.246576e+03,0.000000e+00
3.258146e+03,0.000000e+00
3.269717e+03,0.000000e+00
3.281288e+03,0.000000e+00
3.292859e+03,0.000000e+00
3.304430e+03,0.000000e+00
3.316000e+03,0.000000e+00
3.327571e+03,0.000000e+00
3.339142e+03,0.000000e+00
3.350713e+03,0.000000e+00
3.362284e+03,0.000000e+00
3.373854e+03,0.000000e+00
3.385425e+03,0.000000e+00
3.396996e+03,0.000000e+00
3.408567e+03,0.000000e+00
3.420138e+03,0.000000e+00
3.431708e+03,0.000000e+00
3.443279e+03,0.000000e+00
3.454850e+03,0.000000e+00
3.466421e+03,0.000000e+00
3.477992e+03,0.000000e+00
3.489563e+03,0.000000e+00
3.500169e+03,0.000000e+00

File: black fibre11.CSV
9.931763e+01,0.000000e+00
1.108884e+02,0.000000e+00
1.224592e+02,0.000000e+00
1.340300e+02,0.000000e+00
1.456008e+02,0.000000e+00
1.571716e+02,0.000000e+00
1.687424e+02,0.000000e+00
1.803132e+02,0.000000e+00
1.918840e+02,0.000000e+00
2.034548e+02,1.052034e+04
2.150256e+02,1.057994e+04
2.265964e+02,1.068749e+04
2.381673e+02,1.083688e+04
2.497381e+02,1.092293e+04
2.613088e+02,1.102010e+04
2.728796e+02,1.114520e+04
2.844504e+02,1.128402e+04
2.960212e+02,1.139113e+04
3.075920e+02,1.148884e+04
3.191628e+02,1.160888e+04
3.307336e+02,1.175929e+04
3.423044e+02,1.189110e+04
3.538752e+02,1.203903e+04
3.654461e+02,1.215143e+04
3.770169e+02,1.231209e+04
3.885877e+02,1.246715e+04
4.001585e+02,1.259571e+04
4.117293e+02,1.274472e+04
4.233001e+02,1.288687e+04
4.348709e+02,1.299797e+04
4.464417e+02,1.307538e+04
4.580125e+02,1.304455e+04
4.695833e+02,1.302986e+04
4.811541e+02,1.301448e+04
4.927249e+02,1.294327e+04
5.042957e+02,1.286800e+04
5.158665e+02,1.282324e+04
5.274373e+02,1.265506e+04
5.390081e+02,1.257208e+04
5.505789e+02,1.236153e+04
5.621497e+02,1.227507e+04
5.737205e+02,1.211090e+04
5.852913e+02,1.201173e+04
5.968621e+02,1.190636e+04
6.084329e+02,1.182117e+04
6.200037e+02,1.170059e+04
6.315745e+02,1.161176e+04
6.431453e+02,1.151658e+04
6.547161e+02,1.143174e+04
6.662869e+02,1.136951e+04
6.778577e+02,1.126893e+04
6.894285e+02,1.118534e+04
7.009993e+02,1.110982e+04
7.125701e+02,1.099143e+04
7.241409e+02,1.086529e+04
7.357117e+02,1.076971e+04
7.472825e+02,1.073184e+04
7.588533e+02,1.058562e+04
7.704241e+02,1.048575e+04
7.819949e+02,1.042599e+04
7.935657e+02,1.036032e+04
8.051365e+02,1.027061e+04
8.167073e+02,1.018109e+04
8.282781e+02,1.016314e+04
8.398489e+02,1.008910e+04
8.514197e+02,1.006322e+04
8.629905e+02,9.939567e+03
8.745613e+02,9.902885e+03
8.861321e+02,9.855440e+03
8.977029e+02,9.768676e+03
9.092737e+02,9.675448e+03
9.208445e+02,9.588792e+03
9.324153e+02,9.532826e+03
9.439861e+02,9.494666e+03
9.555569e+02,9.398797e+03
9.671277e+02,9.390858e+03
9.786985e+02,9.321732e+03
9.902693e+02,9.277118e+03
1.001840e+03,9.256144e+03
1.013411e+03,9.201186e+03
1.024982e+03,9.198291e+03
1.036552e+03,9.156721e+03
1.048123e+03,9.093784e+03
1.059694e+03,9.072706e+03
1.071265e+03,9.063908e+03
1.082836e+03,8.985346e+03
1.094406e+03,8.935490e+03
1.105977e+03,8.879678e+03
1.117548e+03,8.862490e+03
1.129119e+03,8.811297e+03
1.140690e+03,8.791573e+03
1.152261e+03,8.786364e+03
1.163831e+03,8.755889e+03
1.175402e+03,8.695509e+03
1.186973e+03,8.678620e+03
1.198544e+03,8.644090e+03
1.210115e+03,8.610442e+03
1.221685e+03,8.568271e+03
1.233256e+03,8.515270e+03
1.244827e+03,8.474149e+03
1.256398e+03,8.438943e+03
1.267969e+03,8.381593e+03
1.279539e+03,8.395182e+03
1.291110e+03,8.349980e+03
1.302681e+03,8.304629e+03
1.314252e+03,8.258497e+03
1.325823e+03,8.261033e+03
1.337393e+03,8.263149e+03
1.348964e+03,8.194278e+03
1.360535e+03,8.143008e+03
1.372106e+03,8.120791e+03
1.383677e+03,8.075197e+03
1.395247e+03,8.012906e+03
1.406818e+03,7.909628e+03
1.418389e+03,7.897143e+03
1.429960e+03,7.856912e+03
1.441531e+03,7.777948e+03
1.453101e+03,7.721796e+03
1.464672e+03,7.664158e+03
1.476243e+03,7.617229e+03
1.487814e+03,7.562662e+03
1.499385e+03,7.492252e+03
1.510955e+03,7.443845e+03
1.522526e+03,7.422513e+03
1.534097e+03,7.350126e+03
1.545668e+03,7.322961e+03
1.557239e+03,7.299127e+03
1.568809e+03,7.235539e+03
1.580380e+03,7.191703e+03
1.591951e+03,7.101013e+03
1.603522e+03,7.087476e+03
1.615093e+03,6.986140e+03
1.626663e+03,6.852163e+03
1.638234e+03,6.779763e+03
1.649805e+03,6.763394e+03
1.661376e+03,6.647719e+03
1.672947e+03,6.568609e+03
1.684517e+03,6.504765e+03
1.696088e+03,6.476321e+03
1.707659e+03,6.411755e+03
1.719230e+03,6.363896e+03
1.730801e+03,6.286538e+03
1.742371e+03,6.223594e+03
1.753942e+03,6.134171e+03
1.765513e+03,6.082078e+03
1.777084e+03,6.021719e+03
1.788655e+03,5.957257e+03
1.800225e+03,5.900354e+03
1.811796e+03,5.805435e+03
1.823367e+03,5.738463e+03
1.834938e+03,5.687570e+03
1.846509e+03,5.643942e+03
1.858079e+03,5.544058e+03
1.869650e+03,5.509290e+03
1.881221e+03,5.401574e+03
1.892792e+03,5.381812e+03
1.904363e+03,5.347773e+03
1.915933e+03,5.270721e+03
1.927504e+03,5.205258e+03
1.939075e+03,5.124382e+03
1.950646e+03,5.054250e+03
1.962217e+03,5.001547e+03
1.973787e+03,4.935290e+03
1.985358e+03,4.891078e+03
1.996929e+03,4.830333e+03
2.008500e+03,4.758659e+03
2.020071e+03,4.696010e+03
2.031641e+03,4.673302e+03
2.043212e+03,4.586789e+03
2.054783e+03,4.545379e+03
2.066354e+03,4.493670e+03
2.077925e+03,4.444121e+03
2.089496e+03,4.371492e+03
2.101066e+03,4.322123e+03
2.112637e+03,4.299675e+03
2.124208e+03,4.270417e+03
2.135779e+03,4.190019e+03
2.147350e+03,4.099013e+03
2.158920e+03,4.045780e+03
2.170491e+03,4.022036e+03
2.182062e+03,3.955124e+03
2.193633e+03,3.898693e+03
2.205204e+03,3.862012e+03
2.216774e+03,3.836740e+03
2.228345e+03,3.757379e+03
2.239916e+03,3.718347e+03
2.251487e+03,3.692427e+03
2.263058e+03,3.664559e+03
2.274628e+03,3.610932e+03
2.286199e+03,3.514005e+03
2.297770e+03,3.566921e+03
2.309341e+03,3.494555e+03
2.320912e+03,3.435364e+03
2.332482e+03,3.382227e+03
2.344053e+03,3.407333e+03
2.355624e+03,3.304618e+03
2.367195e+03,3.303459e+03
2.378766e+03,3.233608e+03
2.390336e+03,3.221354e+03
2.401907e+03,3.175761e+03
2.413478e+03,3.140648e+03
2.425049e+03,3.095403e+03
2.436620e+03,3.052959e+03
2.448190e+03,3.042492e+03
2.459761e+03,3.009865e+03
2.471332e+03,2.962757e+03
2.482903e+03,2.960138e+03
2.494474e+03,2.939658e+03
2.506044e+03,2.883064e+03
2.517615e+03,2.882857e+03
2.529186e+03,2.848199e+03
2.540757e+03,2.810646e+03
2.552328e+03,2.810160e+03
2.563898e+03,2.774305e+03
2.575469e+03,2.753324e+03
2.587040e+03,2.718711e+03
2.598611e+03,2.681128e+03
2.610182e+03,2.656328e+03
2.621752e+03,2.678193e+03
2.633323e+03,2.625998e+03
2.644894e+03,2.606072e+03
2.656465e+03,2.621656e+03
2.668036e+03,2.583630e+03
2.679606e+03,2.596708e+03
2.691177e+03,2.526231e+03
2.702748e+03,2.513437e+03
2.714319e+03,2.509581e+03
2.725890e+03,2.508041e+03
2.737460e+03,2.458250e+03
2.749031e+03,2.428650e+03
2.760602e+03,2.426159e+03
2.772173e+03,2.436989e+03
2.783744e+03,2.386495e+03
2.795314e+03,2.404055e+03
2.806885e+03,2.367897e+03
2.818456e+03,2.333361e+03
2.830027e+03,2.320019e+03
2.841598e+03,2.342950e+03
2.853168e+03,2.311886e+03
2.864739e+03,2.281536e+03
2.876310e+03,2.310229e+03
2.887881e+03,2.278600e+03
2.899452e+03,2.254257e+03
2.911022e+03,2.223482e+03
2.922593e+03,2.215282e+03
2.934164e+03,2.183960e+03
2.945735e+03,2.150288e+03
2.957306e+03,2.180803e+03
2.968876e+03,2.148024e+03
2.980447e+03,2.125997e+03
2.992018e+03,2.069634e+03
3.003589e+03,2.098708e+03
3.015160e+03,2.083753e+03
3.026730e+03,2.082566e+03
3.038301e+03,2.055455e+03
3.049872e+03,2.059173e+03
3.061443e+03,2.023271e+03
3.073014e+03,2.053475e+03
3.084584e+03,2.026164e+03
3.096155e+03,2.012114e+03
3.107726e+03,2.000702e+03
3.119297e+03,1.982584e+03
3.130868e+03,2.030622e+03
3.142438e+03,1.985450e+03
3.154009e+03,1.976206e+03
3.165580e+03,2.008070e+03
3.177151e+03,2.021295e+03
3.188722e+03,1.956795e+03
3.200292e+03,2.048306e+03
3.211863e+03,0.000000e+00
3.223434e+03,0.000000e+00
3.235005e+03,0.000000e+00
3.246576e+03,0.000000e+00
3.258146e+03,0.000000e+00
3.269717e+03,0.000000e+00
3.281288e+03,0.000000e+00
3.292859e+03,0.000000e+00
3.304430e+03,0.000000e+00
3.316000e+03,0.000000e+00
3.327571e+03,0.000000e+00
3.339142e+03,0.000000e+00
3.350713e+03,0.000000e+00
3.362284e+03,0.000000e+00
3.373854e+03,0.000000e+00
3.385425e+03,0.000000e+00
3.396996e+03,0.000000e+00
3.408567e+03,0.000000e+00
3.420138e+03,0.000000e+00
3.431708e+03,0.000000e+00
3.443279e+03,0.000000e+00
3.454850e+03,0.000000e+00
3.466421e+03,0.000000e+00
3.477992e+03,0.000000e+00
3.489563e+03,0.000000e+00
3.500169e+03,0.000000e+00

File: black fibre13.CSV
9.931763e+01,0.000000e+00
1.108884e+02,0.000000e+00
1.224592e+02,0.000000e+00
1.340300e+02,0.000000e+00
1.456008e+02,0.000000e+00
1.571716e+02,0.000000e+00
1.687424e+02,0.000000e+00
1.803132e+02,0.000000e+00
1.918840e+02,0.000000e+00
2.034548e+02,6.648212e+03
2.150256e+02,6.656053e+03
2.265964e+02,6.608304e+03
2.381673e+02,6.636634e+03
2.497381e+02,6.592443e+03
2.613088e+02,6.552974e+03
2.728796e+02,6.541346e+03
2.844504e+02,6.542331e+03
2.960212e+02,6.487542e+03
3.075920e+02,6.487761e+03
3.191628e+02,6.452977e+03
3.307336e+02,6.418977e+03
3.423044e+02,6.385186e+03
3.538752e+02,6.361006e+03
3.654461e+02,6.325449e+03
3.770169e+02,6.335240e+03
3.885877e+02,6.278085e+03
4.001585e+02,6.260138e+03
4.117293e+02,6.238910e+03
4.233001e+02,6.208880e+03
4.348709e+02,6.182990e+03
4.464417e+02,6.147011e+03
4.580125e+02,6.133854e+03
4.695833e+02,6.113998e+03
4.811541e+02,6.096570e+03
4.927249e+02,6.068603e+03
5.042957e+02,6.026662e+03
5.158665e+02,5.983494e+03
5.274373e+02,5.973920e+03
5.390081e+02,5.922875e+03
5.505789e+02,5.910598e+03
5.621497e+02,5.898042e+03
5.737205e+02,5.858620e+03
5.852913e+02,5.825922e+03
5.968621e+02,5.841619e+03
6.084329e+02,5.806293e+03
6.200037e+02,5.766619e+03
6.315745e+02,5.733971e+03
6.431453e+02,5.687359e+03
6.547161e+02,5.682321e+03
6.662869e+02,5.667595e+03
6.778577e+02,5.608222e+03
6.894285e+02,5.604672e+03
7.009993e+02,5.611239e+03
7.125701e+02,5.573786e+03
7.241409e+02,5.541814e+03
7.357117e+02,5.519986e+03
7.472825e+02,5.513372e+03
7.588533e+02,5.465076e+03
7.704241e+02,5.436782e+03
7.819949e+02,5.414384e+03
7.935657e+02,5.409372e+03
8.051365e+02,5.373406e+03
8.167073e+02,5.365462e+03
8.282781e+02,5.340533e+03
8.398489e+02,5.303930e+03
8.514197e+02,5.276804e+03
8.629905e+02,5.253035e+03
8.745613e+02,5.246971e+03
8.861321e+02,5.260914e+03
8.977029e+02,5.209667e+03
9.092737e+02,5.173865e+03
9.208445e+02,5.141639e+03
9.324153e+02,5.131640e+03
9.439861e+02,5.108703e+03
9.555569e+02,5.060242e+03
9.671277e+02,5.064384e+03
9.786985e+02,5.033351e+03
9.902693e+02,5.004990e+03
1.001840e+03,4.987446e+03
1.013411e+03,4.951291e+03
1.024982e+03,4.941792e+03
1.036552e+03,4.926425e+03
1.048123e+03,4.884419e+03
1.059694e+03,4.866543e+03
1.071265e+03,4.868985e+03
1.082836e+03,4.837575e+03
1.094406e+03,4.831602e+03
1.105977e+03,4.806198e+03
1.117548e+03,4.827696e+03
1.129119e+03,4.794218e+03
1.140690e+03,4.773195e+03
1.152261e+03,4.774148e+03
1.163831e+03,4.733218e+03
1.175402e+03,4.693724e+03
1.186973e+03,4.671392e+03
1.198544e+03,4.671268e+03
1.210115e+03,4.634745e+03
1.221685e+03,4.609605e+03
1.233256e+03,4.564377e+03
1.244827e+03,4.585356e+03
1.256398e+03,4.556698e+03
1.267969e+03,4.525104e+03
1.279539e+03,4.541634e+03
1.291110e+03,4.511710e+03
1.302681e+03,4.502445e+03
1.314252e+03,4.465643e+03
1.325823e+03,4.449033e+03
1.337393e+03,4.461784e+03
1.348964e+03,4.428231e+03
1.360535e+03,4.388411e+03
1.372106e+03,4.378765e+03
1.383677e+03,4.339568e+03
1.395247e+03,4.309126e+03
1.406818e+03,4.283182e+03
1.418389e+03,4.268737e+03
1.429960e+03,4.243385e+03
1.441531e+03,4.192989e+03
1.453101e+03,4.165724e+03
1.464672e+03,4.140777e+03
1.476243e+03,4.133570e+03
1.487814e+03,4.112729e+03
1.499385e+03,4.094162e+03
1.510955e+03,4.071255e+03
1.522526e+03,4.043991e+03
1.534097e+03,4.021894e+03
1.545668e+03,3.999933e+03
1.557239e+03,4.014192e+03
1.568809e+03,3.983845e+03
1.580380e+03,3.962360e+03
1.591951e+03,3.948566e+03
1.603522e+03,3.899489e+03
1.615093e+03,3.877659e+03
1.626663e+03,3.822931e+03
1.638234e+03,3.818772e+03
1.649805e+03,3.767820e+03
1.661376e+03,3.729114e+03
1.672947e+03,3.714171e+03
1.684517e+03,3.679257e+03
1.696088e+03,3.669210e+03
1.707659e+03,3.644694e+03
1.719230e+03,3.612626e+03
1.730801e+03,3.590039e+03
1.742371e+03,3.547740e+03
1.753942e+03,3.548118e+03
1.765513e+03,3.522215e+03
1.777084e+03,3.481569e+03
1.788655e+03,3.452681e+03
1.800225e+03,3.449702e+03
1.811796e+03,3.436113e+03
1.823367e+03,3.412287e+03
1.834938e+03,3.408402e+03
1.846509e+03,3.376840e+03
1.858079e+03,3.330208e+03
1.869650e+03,3.311975e+03
1.881221e+03,3.288750e+03
1.892792e+03,3.270050e+03
1.904363e+03,3.231247e+03
1.915933e+03,3.231133e+03
1.927504e+03,3.200677e+03
1.939075e+03,3.161082e+03
1.950646e+03,3.174570e+03
1.962217e+03,3.127928e+03
1.973787e+03,3.131066e+03
1.985358e+03,3.094048e+03
1.996929e+03,3.059797e+03
2.008500e+03,3.042298e+03
2.020071e+03,2.996894e+03
2.031641e+03,3.003095e+03
2.043212e+03,2.956512e+03
2.054783e+03,2.962714e+03
2.066354e+03,2.944484e+03
2.077925e+03,2.899330e+03
2.089496e+03,2.862330e+03
2.101066e+03,2.838573e+03
2.112637e+03,2.825634e+03
2.124208e+03,2.836850e+03
2.135779e+03,2.772600e+03
2.147350e+03,2.727355e+03
2.158920e+03,2.720649e+03
2.170491e+03,2.729165e+03
2.182062e+03,2.684844e+03
2.193633e+03,2.652787e+03
2.205204e+03,2.644267e+03
2.216774e+03,2.625390e+03
2.228345e+03,2.573304e+03
2.239916e+03,2.575960e+03
2.251487e+03,2.562113e+03
2.263058e+03,2.522565e+03
2.274628e+03,2.508219e+03
2.286199e+03,2.456576e+03
2.297770e+03,2.463096e+03
2.309341e+03,2.432898e+03
2.320912e+03,2.413630e+03
2.332482e+03,2.377390e+03
2.344053e+03,2.367241e+03
2.355624e+03,2.347495e+03
2.367195e+03,2.327521e+03
2.378766e+03,2.315097e+03
2.390336e+03,2.295161e+03
2.401907e+03,2.262556e+03
2.413478e+03,2.253331e+03
2.425049e+03,2.225271e+03
2.436620e+03,2.208059e+03
2.448190e+03,2.178692e+03
2.459761e+03,2.172638e+03
2.471332e+03,2.181513e+03
2.482903e+03,2.136253e+03
2.494474e+03,2.122263e+03
2.506044e+03,2.118708e+03
2.517615e+03,2.089650e+03
2.529186e+03,2.075466e+03
2.540757e+03,2.047406e+03
2.552328e+03,2.039482e+03
2.563898e+03,2.023366e+03
2.575469e+03,2.018693e+03
2.587040e+03,1.983276e+03
2.598611e+03,1.984568e+03
2.610182e+03,1.950068e+03
2.621752e+03,1.981309e+03
2.633323e+03,1.937695e+03
2.644894e+03,1.911001e+03
2.656465e+03,1.899596e+03
2.668036e+03,1.903899e+03
2.679606e+03,1.859107e+03
2.691177e+03,1.861633e+03
2.702748e+03,1.858656e+03
2.714319e+03,1.831716e+03
2.725890e+03,1.818926e+03
2.737460e+03,1.829458e+03
2.749031e+03,1.802732e+03
2.760602e+03,1.796193e+03
2.772173e+03,1.792594e+03
2.783744e+03,1.780721e+03
2.795314e+03,1.742310e+03
2.806885e+03,1.744217e+03
2.818456e+03,1.744275e+03
2.830027e+03,1.725324e+03
2.841598e+03,1.696585e+03
2.853168e+03,1.704434e+03
2.864739e+03,1.717291e+03
2.876310e+03,1.681588e+03
2.887881e+03,1.678462e+03
2.899452e+03,1.667928e+03
2.911022e+03,1.676730e+03
2.922593e+03,1.664965e+03
2.934164e+03,1.661965e+03
2.945735e+03,1.659101e+03
2.957306e+03,1.657453e+03
2.968876e+03,1.608059e+03
2.980447e+03,1.560204e+03
2.992018e+03,1.587444e+03
3.003589e+03,1.550791e+03
3.015160e+03,1.550217e+03
3.026730e+03,1.562591e+03
3.038301e+03,1.562488e+03
3.049872e+03,1.538322e+03
3.061443e+03,1.526092e+03
3.073014e+03,1.587017e+03
3.084584e+03,1.534685e+03
3.096155e+03,1.525426e+03
3.107726e+03,1.526068e+03
3.119297e+03,1.526306e+03
3.130868e+03,1.533155e+03
3.142438e+03,1.525435e+03
3.154009e+03,1.512639e+03
3.165580e+03,1.473624e+03
3.177151e+03,1.508419e+03
3.188722e+03,1.509262e+03
3.200292e+03,1.543121e+03
3.211863e+03,0.000000e+00
3.223434e+03,0.000000e+00
3.235005e+03,0.000000e+00
3.246576e+03,0.000000e+00
3.258146e+03,0.000000e+00
3.269717e+03,0.000000e+00
3.281288e+03,0.000000e+00
3.292859e+03,0.000000e+00
3.304430e+03,0.000000e+00
3.316000e+03,0.000000e+00
3.327571e+03,0.000000e+00
3.339142e+03,0.000000e+00
3.350713e+03,0.000000e+00
3.362284e+03,0.000000e+00
3.373854e+03,0.000000e+00
3.385425e+03,0.000000e+00
3.396996e+03,0.000000e+00
3.408567e+03,0.000000e+00
3.420138e+03,0.000000e+00
3.431708e+03,0.000000e+00
3.443279e+03,0.000000e+00
3.454850e+03,0.000000e+00
3.466421e+03,0.000000e+00
3.477992e+03,0.000000e+00
3.489563e+03,0.000000e+00
3.500169e+03,0.000000e+00