Folder: Taff_Bargoed_microplastics_data/RAMAN_data/13042023_r1 (part 2)

File: black fibre3.CSV
9.931763e+01,0.000000e+00
1.108884e+02,0.000000e+00
1.224592e+02,0.000000e+00
1.340300e+02,0.000000e+00
1.456008e+02,0.000000e+00
1.571716e+02,0.000000e+00
1.687424e+02,0.000000e+00
1.803132e+02,0.000000e+00
1.918840e+02,0.000000e+00
2.034548e+02,1.052034e+04
2.150256e+02,1.057994e+04
2.265964e+02,1.068749e+04
2.381673e+02,1.083688e+04
2.497381e+02,1.092293e+04
2.613088e+02,1.102010e+04
2.728796e+02,1.114520e+04
2.844504e+02,1.128402e+04
2.960212e+02,1.139113e+04
3.075920e+02,1.148884e+04
3.191628e+02,1.160888e+04
3.307336e+02,1.175929e+04
3.423044e+02,1.189110e+04
3.538752e+02,1.203903e+04
3.654461e+02,1.215143e+04
3.770169e+02,1.231209e+04
3.885877e+02,1.246715e+04
4.001585e+02,1.259571e+04
4.117293e+02,1.272411e+04
4.233001e+02,1.278911e+04
4.348709e+02,1.289660e+04
4.464417e+02,1.298687e+04
4.580125e+02,1.304292e+04
4.695833e+02,1.309181e+04
4.811541e+02,1.308246e+04
4.927249e+02,1.310762e+04
5.042957e+02,1.311222e+04
5.158665e+02,1.313969e+04
5.274373e+02,1.311173e+04
5.390081e+02,1.309005e+04
5.505789e+02,1.309111e+04
5.621497e+02,1.312207e+04
5.737205e+02,1.306377e+04
5.852913e+02,1.308872e+04
5.968621e+02,1.307629e+04
6.084329e+02,1.306973e+04
6.200037e+02,1.302926e+04
6.315745e+02,1.303605e+04
6.431453e+02,1.296998e+04
6.547161e+02,1.295523e+04
6.662869e+02,1.285766e+04
6.778577e+02,1.276290e+04
6.894285e+02,1.270600e+04
7.009993e+02,1.265760e+04
7.125701e+02,1.261136e+04
7.241409e+02,1.250937e+04
7.357117e+02,1.244573e+04
7.472825e+02,1.233409e+04
7.588533e+02,1.232255e+04
7.704241e+02,1.217287e+04
7.819949e+02,1.213214e+04
7.935657e+02,1.207247e+04
8.051365e+02,1.198609e+04
8.167073e+02,1.193115e+04
8.282781e+02,1.187991e+04
8.398489e+02,1.178615e+04
8.514197e+02,1.173015e+04
8.629905e+02,1.161049e+04
8.745613e+02,1.151791e+04
8.861321e+02,1.154344e+04
8.977029e+02,1.141158e+04
9.092737e+02,1.133100e+04
9.208445e+02,1.123640e+04
9.324153e+02,1.122813e+04
9.439861e+02,1.109216e+04
9.555569e+02,1.101283e+04
9.671277e+02,1.095567e+04
9.786985e+02,1.091035e+04
9.902693e+02,1.082012e+04
1.001840e+03,1.069640e+04
1.013411e+03,1.064402e+04
1.024982e+03,1.063036e+04
1.036552e+03,1.053606e+04
1.048123e+03,1.040113e+04
1.059694e+03,1.037301e+04
1.071265e+03,1.032931e+04
1.082836e+03,1.024116e+04
1.094406e+03,1.011207e+04
1.105977e+03,1.009030e+04
1.117548e+03,1.005318e+04
1.129119e+03,9.941982e+03
1.140690e+03,9.867558e+03
1.152261e+03,9.803715e+03
1.163831e+03,9.747188e+03
1.175402e+03,9.608931e+03
1.186973e+03,9.577574e+03
1.198544e+03,9.561889e+03
1.210115e+03,9.485028e+03
1.221685e+03,9.378113e+03
1.233256e+03,9.281857e+03
1.244827e+03,9.271048e+03
1.256398e+03,9.170963e+03
1.267969e+03,9.112569e+03
1.279539e+03,9.024215e+03
1.291110e+03,8.956918e+03
1.302681e+03,8.884931e+03
1.314252e+03,8.802083e+03
1.325823e+03,8.775862e+03
1.337393e+03,8.724133e+03
1.348964e+03,8.653584e+03
1.360535e+03,8.620792e+03
1.372106e+03,8.514337e+03
1.383677e+03,8.453140e+03
1.395247e+03,8.378621e+03
1.406818e+03,8.317867e+03
1.418389e+03,8.262025e+03
1.429960e+03,8.200836e+03
1.441531e+03,8.154850e+03
1.453101e+03,8.077404e+03
1.464672e+03,8.039005e+03
1.476243e+03,7.953857e+03
1.487814e+03,7.855173e+03
1.499385e+03,7.784060e+03
1.510955e+03,7.723733e+03
1.522526e+03,7.727188e+03
1.534097e+03,7.614246e+03
1.545668e+03,7.550028e+03
1.557239e+03,7.510372e+03
1.568809e+03,7.483506e+03
1.580380e+03,7.372775e+03
1.591951e+03,7.318771e+03
1.603522e+03,7.286187e+03
1.615093e+03,7.218982e+03
1.626663e+03,7.136795e+03
1.638234e+03,7.089534e+03
1.649805e+03,7.002220e+03
1.661376e+03,6.954775e+03
1.672947e+03,6.888367e+03
1.684517e+03,6.806303e+03
1.696088e+03,6.794107e+03
1.707659e+03,6.742591e+03
1.719230e+03,6.663610e+03
1.730801e+03,6.614018e+03
1.742371e+03,6.533894e+03
1.753942e+03,6.501040e+03
1.765513e+03,6.453250e+03
1.777084e+03,6.388431e+03
1.788655e+03,6.334372e+03
1.800225e+03,6.271473e+03
1.811796e+03,6.199815e+03
1.823367e+03,6.136221e+03
1.834938e+03,6.131780e+03
1.846509e+03,6.033163e+03
1.858079e+03,5.986206e+03
1.869650e+03,5.914727e+03
1.881221e+03,5.873037e+03
1.892792e+03,5.823180e+03
1.904363e+03,5.797013e+03
1.915933e+03,5.718862e+03
1.927504e+03,5.659460e+03
1.939075e+03,5.603975e+03
1.950646e+03,5.547694e+03
1.962217e+03,5.488048e+03
1.973787e+03,5.479083e+03
1.985358e+03,5.416319e+03
1.996929e+03,5.337154e+03
2.008500e+03,5.301443e+03
2.020071e+03,5.196914e+03
2.031641e+03,5.183642e+03
2.043212e+03,5.089122e+03
2.054783e+03,5.029395e+03
2.066354e+03,5.012143e+03
2.077925e+03,4.944397e+03
2.089496e+03,4.909981e+03
2.101066e+03,4.857677e+03
2.112637e+03,4.785525e+03
2.124208e+03,4.760359e+03
2.135779e+03,4.701296e+03
2.147350e+03,4.614847e+03
2.158920e+03,4.591839e+03
2.170491e+03,4.526123e+03
2.182062e+03,4.471976e+03
2.193633e+03,4.421112e+03
2.205204e+03,4.393964e+03
2.216774e+03,4.344271e+03
2.228345e+03,4.234767e+03
2.239916e+03,4.240691e+03
2.251487e+03,4.161471e+03
2.263058e+03,4.110726e+03
2.274628e+03,4.079777e+03
2.286199e+03,3.995323e+03
2.297770e+03,3.985829e+03
2.309341e+03,3.912579e+03
2.320912e+03,3.875810e+03
2.332482e+03,3.826332e+03
2.344053e+03,3.806787e+03
2.355624e+03,3.729334e+03
2.367195e+03,3.659333e+03
2.378766e+03,3.689303e+03
2.390336e+03,3.603658e+03
2.401907e+03,3.552215e+03
2.413478e+03,3.534241e+03
2.425049e+03,3.494589e+03
2.436620e+03,3.421142e+03
2.448190e+03,3.376059e+03
2.459761e+03,3.345312e+03
2.471332e+03,3.319351e+03
2.482903e+03,3.290658e+03
2.494474e+03,3.221295e+03
2.506044e+03,3.201263e+03
2.517615e+03,3.167559e+03
2.529186e+03,3.145841e+03
2.540757e+03,3.106627e+03
2.552328e+03,3.064996e+03
2.563898e+03,3.007933e+03
2.575469e+03,2.986507e+03
2.587040e+03,2.948098e+03
2.598611e+03,2.924857e+03
2.610182e+03,2.907387e+03
2.621752e+03,2.878252e+03
2.633323e+03,2.816771e+03
2.644894e+03,2.829460e+03
2.656465e+03,2.805026e+03
2.668036e+03,2.759368e+03
2.679606e+03,2.722486e+03
2.691177e+03,2.725690e+03
2.702748e+03,2.656352e+03
2.714319e+03,2.643413e+03
2.725890e+03,2.610019e+03
2.737460e+03,2.591359e+03
2.749031e+03,2.596993e+03
2.760602e+03,2.553871e+03
2.772173e+03,2.533638e+03
2.783744e+03,2.511090e+03
2.795314e+03,2.485808e+03
2.806885e+03,2.460053e+03
2.818456e+03,2.412011e+03
2.830027e+03,2.403078e+03
2.841598e+03,2.372795e+03
2.853168e+03,2.393483e+03
2.864739e+03,2.339155e+03
2.876310e+03,2.323222e+03
2.887881e+03,2.279292e+03
2.899452e+03,2.287098e+03
2.911022e+03,2.255773e+03
2.922593e+03,2.225315e+03
2.934164e+03,2.210226e+03
2.945735e+03,2.168972e+03
2.957306e+03,2.207251e+03
2.968876e+03,2.148494e+03
2.980447e+03,2.161989e+03
2.992018e+03,2.143769e+03
3.003589e+03,2.128685e+03
3.015160e+03,2.102994e+03
3.026730e+03,2.105879e+03
3.038301e+03,2.066672e+03
3.049872e+03,2.056196e+03
3.061443e+03,2.058974e+03
3.073014e+03,2.051344e+03
3.084584e+03,2.016075e+03
3.096155e+03,2.039472e+03
3.107726e+03,1.988438e+03
3.119297e+03,1.988502e+03
3.130868e+03,2.074910e+03
3.142438e+03,2.037402e+03
3.154009e+03,2.014495e+03
3.165580e+03,2.057810e+03
3.177151e+03,2.032713e+03
3.188722e+03,2.038259e+03
3.200292e+03,2.078256e+03
3.211863e+03,0.000000e+00
3.223434e+03,0.000000e+00
3.235005e+03,0.000000e+00
3.246576e+03,0.000000e+00
3.258146e+03,0.000000e+00
3.269717e+03,0.000000e+00
3.281288e+03,0.000000e+00
3.292859e+03,0.000000e+00
3.304430e+03,0.000000e+00
3.316000e+03,0.000000e+00
3.327571e+03,0.000000e+00
3.339142e+03,0.000000e+00
3.350713e+03,0.000000e+00
3.362284e+03,0.000000e+00
3.373854e+03,0.000000e+00
3.385425e+03,0.000000e+00
3.396996e+03,0.000000e+00
3.408567e+03,0.000000e+00
3.420138e+03,0.000000e+00
3.431708e+03,0.000000e+00
3.443279e+03,0.000000e+00
3.454850e+03,0.000000e+00
3.466421e+03,0.000000e+00
3.477992e+03,0.000000e+00
3.489563e+03,0.000000e+00
3.500169e+03,0.000000e+00

File: black fibre6.CSV
9.931763e+01,0.000000e+00
1.108884e+02,0.000000e+00
1.224592e+02,0.000000e+00
1.340300e+02,0.000000e+00
1.456008e+02,0.000000e+00
1.571716e+02,0.000000e+00
1.687424e+02,0.000000e+00
1.803132e+02,0.000000e+00
1.918840e+02,0.000000e+00
2.034548e+02,1.052034e+04
2.150256e+02,1.057994e+04
2.265964e+02,1.068749e+04
2.381673e+02,1.083688e+04
2.497381e+02,1.092293e+04
2.613088e+02,1.102010e+04
2.728796e+02,1.114520e+04
2.844504e+02,1.128402e+04
2.960212e+02,1.139113e+04
3.075920e+02,1.148884e+04
3.191628e+02,1.160888e+04
3.307336e+02,1.175929e+04
3.423044e+02,1.189110e+04
3.538752e+02,1.203903e+04
3.654461e+02,1.215143e+04
3.770169e+02,1.231209e+04
3.885877e+02,1.246008e+04
4.001585e+02,1.251772e+04
4.117293e+02,1.258389e+04
4.233001e+02,1.267219e+04
4.348709e+02,1.273412e+04
4.464417e+02,1.277720e+04
4.580125e+02,1.278514e+04
4.695833e+02,1.281448e+04
4.811541e+02,1.281690e+04
4.927249e+02,1.284313e+04
5.042957e+02,1.283590e+04
5.158665e+02,1.287330e+04
5.274373e+02,1.284523e+04
5.390081e+02,1.282765e+04
5.505789e+02,1.285014e+04
5.621497e+02,1.284630e+04
5.737205e+02,1.272728e+04
5.852913e+02,1.265722e+04
5.968621e+02,1.264778e+04
6.084329e+02,1.258927e+04
6.200037e+02,1.250496e+04
6.315745e+02,1.245038e+04
6.431453e+02,1.236391e+04
6.547161e+02,1.234923e+04
6.662869e+02,1.223382e+04
6.778577e+02,1.215541e+04
6.894285e+02,1.211778e+04
7.009993e+02,1.211615e+04
7.125701e+02,1.202221e+04
7.241409e+02,1.196831e+04
7.357117e+02,1.194399e+04
7.472825e+02,1.193780e+04
7.588533e+02,1.183550e+04
7.704241e+02,1.179088e+04
7.819949e+02,1.173011e+04
7.935657e+02,1.169492e+04
8.051365e+02,1.163270e+04
8.167073e+02,1.157619e+04
8.282781e+02,1.152614e+04
8.398489e+02,1.147583e+04
8.514197e+02,1.142897e+04
8.629905e+02,1.138176e+04
8.745613e+02,1.129748e+04
8.861321e+02,1.128325e+04
8.977029e+02,1.122643e+04
9.092737e+02,1.117812e+04
9.208445e+02,1.110837e+04
9.324153e+02,1.109521e+04
9.439861e+02,1.102341e+04
9.555569e+02,1.097201e+04
9.671277e+02,1.091888e+04
9.786985e+02,1.089670e+04
9.902693e+02,1.087311e+04
1.001840e+03,1.079486e+04
1.013411e+03,1.073430e+04
1.024982e+03,1.070394e+04
1.036552e+03,1.064593e+04
1.048123e+03,1.062185e+04
1.059694e+03,1.057149e+04
1.071265e+03,1.056424e+04
1.082836e+03,1.056747e+04
1.094406e+03,1.049047e+04
1.105977e+03,1.045266e+04
1.117548e+03,1.041491e+04
1.129119e+03,1.036753e+04
1.140690e+03,1.031646e+04
1.152261e+03,1.036198e+04
1.163831e+03,1.030097e+04
1.175402e+03,1.019872e+04
1.186973e+03,1.016047e+04
1.198544e+03,1.016186e+04
1.210115e+03,1.014623e+04
1.221685e+03,1.005211e+04
1.233256e+03,1.004024e+04
1.244827e+03,1.001548e+04
1.256398e+03,9.990888e+03
1.267969e+03,9.909624e+03
1.279539e+03,9.897379e+03
1.291110e+03,9.872197e+03
1.302681e+03,9.858170e+03
1.314252e+03,9.776303e+03
1.325823e+03,9.760835e+03
1.337393e+03,9.739844e+03
1.348964e+03,9.687700e+03
1.360535e+03,9.610678e+03
1.372106e+03,9.544833e+03
1.383677e+03,9.493255e+03
1.395247e+03,9.447814e+03
1.406818e+03,9.375094e+03
1.418389e+03,9.352934e+03
1.429960e+03,9.309056e+03
1.441531e+03,9.262337e+03
1.453101e+03,9.177520e+03
1.464672e+03,9.134033e+03
1.476243e+03,9.119853e+03
1.487814e+03,9.039848e+03
1.499385e+03,8.992393e+03
1.510955e+03,8.955647e+03
1.522526e+03,8.920395e+03
1.534097e+03,8.882145e+03
1.545668e+03,8.811386e+03
1.557239e+03,8.802906e+03
1.568809e+03,8.805497e+03
1.580380e+03,8.794881e+03
1.591951e+03,8.704999e+03
1.603522e+03,8.655951e+03
1.615093e+03,8.598407e+03
1.626663e+03,8.538972e+03
1.638234e+03,8.439354e+03
1.649805e+03,8.397446e+03
1.661376e+03,8.321588e+03
1.672947e+03,8.251780e+03
1.684517e+03,8.223267e+03
1.696088e+03,8.199403e+03
1.707659e+03,8.134284e+03
1.719230e+03,8.074131e+03
1.730801e+03,8.000095e+03
1.742371e+03,7.986290e+03
1.753942e+03,7.926380e+03
1.765513e+03,7.886541e+03
1.777084e+03,7.839501e+03
1.788655e+03,7.783812e+03
1.800225e+03,7.748466e+03
1.811796e+03,7.685057e+03
1.823367e+03,7.632313e+03
1.834938e+03,7.607900e+03
1.846509e+03,7.571933e+03
1.858079e+03,7.485793e+03
1.869650e+03,7.426578e+03
1.881221e+03,7.374467e+03
1.892792e+03,7.356228e+03
1.904363e+03,7.330865e+03
1.915933e+03,7.270065e+03
1.927504e+03,7.233008e+03
1.939075e+03,7.129279e+03
1.950646e+03,7.091907e+03
1.962217e+03,7.035361e+03
1.973787e+03,6.978254e+03
1.985358e+03,6.944064e+03
1.996929e+03,6.854594e+03
2.008500e+03,6.826593e+03
2.020071e+03,6.792976e+03
2.031641e+03,6.749692e+03
2.043212e+03,6.690381e+03
2.054783e+03,6.616899e+03
2.066354e+03,6.603183e+03
2.077925e+03,6.521065e+03
2.089496e+03,6.507989e+03
2.101066e+03,6.392892e+03
2.112637e+03,6.350982e+03
2.124208e+03,6.354217e+03
2.135779e+03,6.285036e+03
2.147350e+03,6.168922e+03
2.158920e+03,6.158978e+03
2.170491e+03,6.178336e+03
2.182062e+03,6.008891e+03
2.193633e+03,5.985654e+03
2.205204e+03,5.966373e+03
2.216774e+03,5.939489e+03
2.228345e+03,5.834797e+03
2.239916e+03,5.761694e+03
2.251487e+03,5.737935e+03
2.263058e+03,5.686222e+03
2.274628e+03,5.642248e+03
2.286199e+03,5.572007e+03
2.297770e+03,5.570706e+03
2.309341e+03,5.486658e+03
2.320912e+03,5.433799e+03
2.332482e+03,5.379118e+03
2.344053e+03,5.409747e+03
2.355624e+03,5.284039e+03
2.367195e+03,5.248210e+03
2.378766e+03,5.202728e+03
2.390336e+03,5.170310e+03
2.401907e+03,5.113255e+03
2.413478e+03,5.078250e+03
2.425049e+03,5.029158e+03
2.436620e+03,4.977866e+03
2.448190e+03,4.948244e+03
2.459761e+03,4.883833e+03
2.471332e+03,4.880750e+03
2.482903e+03,4.833060e+03
2.494474e+03,4.738599e+03
2.506044e+03,4.743281e+03
2.517615e+03,4.693522e+03
2.529186e+03,4.665299e+03
2.540757e+03,4.625102e+03
2.552328e+03,4.580718e+03
2.563898e+03,4.580917e+03
2.575469e+03,4.555409e+03
2.587040e+03,4.505184e+03
2.598611e+03,4.444185e+03
2.610182e+03,4.435404e+03
2.621752e+03,4.361539e+03
2.633323e+03,4.324323e+03
2.644894e+03,4.322190e+03
2.656465e+03,4.289814e+03
2.668036e+03,4.320860e+03
2.679606e+03,4.245373e+03
2.691177e+03,4.230529e+03
2.702748e+03,4.211378e+03
2.714319e+03,4.112159e+03
2.725890e+03,4.109885e+03
2.737460e+03,4.080934e+03
2.749031e+03,4.093517e+03
2.760602e+03,4.061189e+03
2.772173e+03,4.022931e+03
2.783744e+03,3.978872e+03
2.795314e+03,3.999639e+03
2.806885e+03,3.957406e+03
2.818456e+03,3.924152e+03
2.830027e+03,3.920205e+03
2.841598e+03,3.899722e+03
2.853168e+03,3.865037e+03
2.864739e+03,3.841973e+03
2.876310e+03,3.848172e+03
2.887881e+03,3.840019e+03
2.899452e+03,3.811627e+03
2.911022e+03,3.768377e+03
2.922593e+03,3.748595e+03
2.934164e+03,3.748611e+03
2.945735e+03,3.691669e+03
2.957306e+03,3.681707e+03
2.968876e+03,3.680338e+03
2.980447e+03,3.609198e+03
2.992018e+03,3.610683e+03
3.003589e+03,3.535387e+03
3.015160e+03,3.592698e+03
3.026730e+03,3.574422e+03
3.038301e+03,3.563606e+03
3.049872e+03,3.530672e+03
3.061443e+03,3.559131e+03
3.073014e+03,3.431545e+03
3.084584e+03,3.509386e+03
3.096155e+03,3.460552e+03
3.107726e+03,3.378865e+03
3.119297e+03,3.404895e+03
3.130868e+03,3.477763e+03
3.142438e+03,3.454918e+03
3.154009e+03,3.400778e+03
3.165580e+03,3.403436e+03
3.177151e+03,3.446247e+03
3.188722e+03,3.434560e+03
3.200292e+03,3.426091e+03
3.211863e+03,0.000000e+00
3.223434e+03,0.000000e+00
3.235005e+03,0.000000e+00
3.246576e+03,0.000000e+00
3.258146e+03,0.000000e+00
3.269717e+03,0.000000e+00
3.281288e+03,0.000000e+00
3.292859e+03,0.000000e+00
3.304430e+03,0.000000e+00
3.316000e+03,0.000000e+00
3.327571e+03,0.000000e+00
3.339142e+03,0.000000e+00
3.350713e+03,0.000000e+00
3.362284e+03,0.000000e+00
3.373854e+03,0.000000e+00
3.385425e+03,0.000000e+00
3.396996e+03,0.000000e+00
3.408567e+03,0.000000e+00
3.420138e+03,0.000000e+00
3.431708e+03,0.000000e+00
3.443279e+03,0.000000e+00
3.454850e+03,0.000000e+00
3.466421e+03,0.000000e+00
3.477992e+03,0.000000e+00
3.489563e+03,0.000000e+00
3.500169e+03,0.000000e+00

File: black fibre7.CSV
9.931763e+01,0.000000e+00
1.108884e+02,0.000000e+00
1.224592e+02,0.000000e+00
1.340300e+02,0.000000e+00
1.456008e+02,0.000000e+00
1.571716e+02,0.000000e+00
1.687424e+02,0.000000e+00
1.803132e+02,0.000000e+00
1.918840e+02,0.000000e+00
2.034548e+02,1.017584e+04
2.150256e+02,1.015103e+04
2.265964e+02,1.015407e+04
2.381673e+02,1.020954e+04
2.497381e+02,1.019711e+04
2.613088e+02,1.021405e+04
2.728796e+02,1.020372e+04
2.844504e+02,1.024113e+04
2.960212e+02,1.024776e+04
3.075920e+02,1.022799e+04
3.191628e+02,1.022613e+04
3.307336e+02,1.018188e+04
3.423044e+02,1.011826e+04
3.538752e+02,1.001575e+04
3.654461e+02,9.979272e+03
3.770169e+02,9.910582e+03
3.885877e+02,9.849828e+03
4.001585e+02,9.753654e+03
4.117293e+02,9.673874e+03
4.233001e+02,9.626778e+03
4.348709e+02,9.541010e+03
4.464417e+02,9.447245e+03
4.580125e+02,9.416796e+03
4.695833e+02,9.344473e+03
4.811541e+02,9.275790e+03
4.927249e+02,9.199927e+03
5.042957e+02,9.156484e+03
5.158665e+02,9.073465e+03
5.274373e+02,9.059650e+03
5.390081e+02,8.931265e+03
5.505789e+02,8.860216e+03
5.621497e+02,8.832700e+03
5.737205e+02,8.747639e+03
5.852913e+02,8.660500e+03
5.968621e+02,8.628229e+03
6.084329e+02,8.600185e+03
6.200037e+02,8.495830e+03
6.315745e+02,8.410649e+03
6.431453e+02,8.366151e+03
6.547161e+02,8.318463e+03
6.662869e+02,8.233176e+03
6.778577e+02,8.195081e+03
6.894285e+02,8.117598e+03
7.009993e+02,8.090817e+03
7.125701e+02,8.032885e+03
7.241409e+02,7.969834e+03
7.357117e+02,7.896468e+03
7.472825e+02,7.852949e+03
7.588533e+02,7.809416e+03
7.704241e+02,7.742986e+03
7.819949e+02,7.656434e+03
7.935657e+02,7.654080e+03
8.051365e+02,7.585183e+03
8.167073e+02,7.497742e+03
8.282781e+02,7.469795e+03
8.398489e+02,7.431258e+03
8.514197e+02,7.340079e+03
8.629905e+02,7.329797e+03
8.745613e+02,7.241483e+03
8.861321e+02,7.252549e+03
8.977029e+02,7.172453e+03
9.092737e+02,7.121986e+03
9.208445e+02,7.055143e+03
9.324153e+02,7.043821e+03
9.439861e+02,6.945521e+03
9.555569e+02,6.914117e+03
9.671277e+02,6.855318e+03
9.786985e+02,6.832391e+03
9.902693e+02,6.773247e+03
1.001840e+03,6.704025e+03
1.013411e+03,6.659297e+03
1.024982e+03,6.640188e+03
1.036552e+03,6.601877e+03
1.048123e+03,6.536246e+03
1.059694e+03,6.493735e+03
1.071265e+03,6.457546e+03
1.082836e+03,6.424280e+03
1.094406e+03,6.360604e+03
1.105977e+03,6.349649e+03
1.117548e+03,6.329765e+03
1.129119e+03,6.245929e+03
1.140690e+03,6.224845e+03
1.152261e+03,6.191229e+03
1.163831e+03,6.149466e+03
1.175402e+03,6.079352e+03
1.186973e+03,6.031579e+03
1.198544e+03,6.023670e+03
1.210115e+03,5.978669e+03
1.221685e+03,5.910743e+03
1.233256e+03,5.850149e+03
1.244827e+03,5.828998e+03
1.256398e+03,5.802506e+03
1.267969e+03,5.745080e+03
1.279539e+03,5.713075e+03
1.291110e+03,5.698690e+03
1.302681e+03,5.623510e+03
1.314252e+03,5.591284e+03
1.325823e+03,5.562135e+03
1.337393e+03,5.539574e+03
1.348964e+03,5.480236e+03
1.360535e+03,5.438298e+03
1.372106e+03,5.409445e+03
1.383677e+03,5.336121e+03
1.395247e+03,5.315269e+03
1.406818e+03,5.257655e+03
1.418389e+03,5.236174e+03
1.429960e+03,5.176926e+03
1.441531e+03,5.140670e+03
1.453101e+03,5.087093e+03
1.464672e+03,5.062344e+03
1.476243e+03,5.035851e+03
1.487814e+03,4.963177e+03
1.499385e+03,4.934345e+03
1.510955e+03,4.885939e+03
1.522526e+03,4.875857e+03
1.534097e+03,4.808421e+03
1.545668e+03,4.766970e+03
1.557239e+03,4.748134e+03
1.568809e+03,4.722648e+03
1.580380e+03,4.698457e+03
1.591951e+03,4.640272e+03
1.603522e+03,4.610937e+03
1.615093e+03,4.536321e+03
1.626663e+03,4.519445e+03
1.638234e+03,4.456675e+03
1.649805e+03,4.417221e+03
1.661376e+03,4.377902e+03
1.672947e+03,4.344051e+03
1.684517e+03,4.299276e+03
1.696088e+03,4.260606e+03
1.707659e+03,4.239155e+03
1.719230e+03,4.175915e+03
1.730801e+03,4.144483e+03
1.742371e+03,4.103402e+03
1.753942e+03,4.079828e+03
1.765513e+03,4.043201e+03
1.777084e+03,4.025770e+03
1.788655e+03,3.983106e+03
1.800225e+03,3.922990e+03
1.811796e+03,3.881020e+03
1.823367e+03,3.846997e+03
1.834938e+03,3.838013e+03
1.846509e+03,3.759357e+03
1.858079e+03,3.741027e+03
1.869650e+03,3.695050e+03
1.881221e+03,3.634000e+03
1.892792e+03,3.644376e+03
1.904363e+03,3.595917e+03
1.915933e+03,3.538339e+03
1.927504e+03,3.526864e+03
1.939075e+03,3.452975e+03
1.950646e+03,3.417720e+03
1.962217e+03,3.407138e+03
1.973787e+03,3.354417e+03
1.985358e+03,3.345648e+03
1.996929e+03,3.258620e+03
2.008500e+03,3.239200e+03
2.020071e+03,3.211270e+03
2.031641e+03,3.209615e+03
2.043212e+03,3.161690e+03
2.054783e+03,3.102374e+03
2.066354e+03,3.080626e+03
2.077925e+03,3.051155e+03
2.089496e+03,3.008425e+03
2.101066e+03,2.961107e+03
2.112637e+03,2.937623e+03
2.124208e+03,2.907017e+03
2.135779e+03,2.883208e+03
2.147350e+03,2.829621e+03
2.158920e+03,2.829246e+03
2.170491e+03,2.785239e+03
2.182062e+03,2.756901e+03
2.193633e+03,2.714100e+03
2.205204e+03,2.674389e+03
2.216774e+03,2.673786e+03
2.228345e+03,2.610036e+03
2.239916e+03,2.579260e+03
2.251487e+03,2.562723e+03
2.263058e+03,2.501381e+03
2.274628e+03,2.489493e+03
2.286199e+03,2.437009e+03
2.297770e+03,2.441014e+03
2.309341e+03,2.392599e+03
2.320912e+03,2.356221e+03
2.332482e+03,2.343310e+03
2.344053e+03,2.337208e+03
2.355624e+03,2.302974e+03
2.367195e+03,2.238256e+03
2.378766e+03,2.222614e+03
2.390336e+03,2.194813e+03
2.401907e+03,2.174717e+03
2.413478e+03,2.158281e+03
2.425049e+03,2.123035e+03
2.436620e+03,2.102781e+03
2.448190e+03,2.091962e+03
2.459761e+03,2.063302e+03
2.471332e+03,2.042078e+03
2.482903e+03,2.020065e+03
2.494474e+03,1.989739e+03
2.506044e+03,1.961582e+03
2.517615e+03,1.956195e+03
2.529186e+03,1.933163e+03
2.540757e+03,1.895765e+03
2.552328e+03,1.909501e+03
2.563898e+03,1.883722e+03
2.575469e+03,1.861332e+03
2.587040e+03,1.834856e+03
2.598611e+03,1.827088e+03
2.610182e+03,1.783063e+03
2.621752e+03,1.777256e+03
2.633323e+03,1.771993e+03
2.644894e+03,1.748964e+03
2.656465e+03,1.761676e+03
2.668036e+03,1.728915e+03
2.679606e+03,1.695725e+03
2.691177e+03,1.676137e+03
2.702748e+03,1.639055e+03
2.714319e+03,1.659554e+03
2.725890e+03,1.671690e+03
2.737460e+03,1.642155e+03
2.749031e+03,1.610676e+03
2.760602e+03,1.596899e+03
2.772173e+03,1.579166e+03
2.783744e+03,1.559069e+03
2.795314e+03,1.570097e+03
2.806885e+03,1.554108e+03
2.818456e+03,1.533574e+03
2.830027e+03,1.517190e+03
2.841598e+03,1.513148e+03
2.853168e+03,1.507952e+03
2.864739e+03,1.520074e+03
2.876310e+03,1.499394e+03
2.887881e+03,1.464288e+03
2.899452e+03,1.486413e+03
2.911022e+03,1.469799e+03
2.922593e+03,1.454832e+03
2.934164e+03,1.443608e+03
2.945735e+03,1.465676e+03
2.957306e+03,1.469757e+03
2.968876e+03,1.390495e+03
2.980447e+03,1.382333e+03
2.992018e+03,1.400809e+03
3.003589e+03,1.351614e+03
3.015160e+03,1.383303e+03
3.026730e+03,1.362430e+03
3.038301e+03,1.350942e+03
3.049872e+03,1.353061e+03
3.061443e+03,1.354182e+03
3.073014e+03,1.348750e+03
3.084584e+03,1.345596e+03
3.096155e+03,1.351205e+03
3.107726e+03,1.315258e+03
3.119297e+03,1.318692e+03
3.130868e+03,1.322954e+03
3.142438e+03,1.374444e+03
3.154009e+03,1.335546e+03
3.165580e+03,1.321427e+03
3.177151e+03,1.365768e+03
3.188722e+03,1.346863e+03
3.200292e+03,1.361303e+03
3.211863e+03,0.000000e+00
3.223434e+03,0.000000e+00
3.235005e+03,0.000000e+00
3.246576e+03,0.000000e+00
3.258146e+03,0.000000e+00
3.269717e+03,0.000000e+00
3.281288e+03,0.000000e+00
3.292859e+03,0.000000e+00
3.304430e+03,0.000000e+00
3.316000e+03,0.000000e+00
3.327571e+03,0.000000e+00
3.339142e+03,0.000000e+00
3.350713e+03,0.000000e+00
3.362284e+03,0.000000e+00
3.373854e+03,0.000000e+00
3.385425e+03,0.000000e+00
3.396996e+03,0.000000e+00
3.408567e+03,0.000000e+00
3.420138e+03,0.000000e+00
3.431708e+03,0.000000e+00
3.443279e+03,0.000000e+00
3.454850e+03,0.000000e+00
3.466421e+03,0.000000e+00
3.477992e+03,0.000000e+00
3.489563e+03,0.000000e+00
3.500169e+03,0.000000e+00