Folder: Taff_Bargoed_microplastics_data/RAMAN_data/13042023_r2 (part 5)

File: white frag1.CSV
9.931763e+01,0.000000e+00
1.108884e+02,0.000000e+00
1.224592e+02,0.000000e+00
1.340300e+02,0.000000e+00
1.456008e+02,0.000000e+00
1.571716e+02,0.000000e+00
1.687424e+02,0.000000e+00
1.803132e+02,0.000000e+00
1.918840e+02,0.000000e+00
2.034548e+02,4.182965e+03
2.150256e+02,4.141280e+03
2.265964e+02,4.116173e+03
2.381673e+02,4.114259e+03
2.497381e+02,4.123966e+03
2.613088e+02,4.104228e+03
2.728796e+02,4.109288e+03
2.844504e+02,4.099890e+03
2.960212e+02,4.063610e+03
3.075920e+02,4.054806e+03
3.191628e+02,4.043069e+03
3.307336e+02,4.026416e+03
3.423044e+02,4.014179e+03
3.538752e+02,4.010023e+03
3.654461e+02,3.966799e+03
3.770169e+02,3.989099e+03
3.885877e+02,3.971409e+03
4.001585e+02,3.920430e+03
4.117293e+02,3.927283e+03
4.233001e+02,3.904546e+03
4.348709e+02,3.893134e+03
4.464417e+02,3.867657e+03
4.580125e+02,3.855278e+03
4.695833e+02,3.847450e+03
4.811541e+02,3.824168e+03
4.927249e+02,3.828370e+03
5.042957e+02,3.786839e+03
5.158665e+02,3.780161e+03
5.274373e+02,3.762365e+03
5.390081e+02,3.752861e+03
5.505789e+02,3.739378e+03
5.621497e+02,3.719669e+03
5.737205e+02,3.680003e+03
5.852913e+02,3.681593e+03
5.968621e+02,3.668687e+03
6.084329e+02,3.651351e+03
6.200037e+02,3.621833e+03
6.315745e+02,3.602267e+03
6.431453e+02,3.596394e+03
6.547161e+02,3.589442e+03
6.662869e+02,3.553978e+03
6.778577e+02,3.555444e+03
6.894285e+02,3.529100e+03
7.009993e+02,3.532859e+03
7.125701e+02,3.493832e+03
7.241409e+02,3.470125e+03
7.357117e+02,3.455029e+03
7.472825e+02,3.436628e+03
7.588533e+02,3.441460e+03
7.704241e+02,3.412286e+03
7.819949e+02,3.398391e+03
7.935657e+02,3.370801e+03
8.051365e+02,3.373390e+03
8.167073e+02,3.335038e+03
8.282781e+02,3.316380e+03
8.398489e+02,3.310523e+03
8.514197e+02,3.286519e+03
8.629905e+02,3.278111e+03
8.745613e+02,3.268267e+03
8.861321e+02,3.262909e+03
8.977029e+02,3.217523e+03
9.092737e+02,3.222993e+03
9.208445e+02,3.180119e+03
9.324153e+02,3.183815e+03
9.439861e+02,3.164990e+03
9.555569e+02,3.154138e+03
9.671277e+02,3.145863e+03
9.786985e+02,3.125266e+03
9.902693e+02,3.107569e+03
1.001840e+03,3.091012e+03
1.013411e+03,3.080460e+03
1.024982e+03,3.077031e+03
1.036552e+03,3.051687e+03
1.048123e+03,3.048981e+03
1.059694e+03,3.034628e+03
1.071265e+03,3.037496e+03
1.082836e+03,3.167729e+03
1.094406e+03,3.000113e+03
1.105977e+03,3.022121e+03
1.117548e+03,2.997644e+03
1.129119e+03,2.965362e+03
1.140690e+03,2.970908e+03
1.152261e+03,2.955902e+03
1.163831e+03,2.954255e+03
1.175402e+03,2.932165e+03
1.186973e+03,2.924248e+03
1.198544e+03,2.916973e+03
1.210115e+03,2.914583e+03
1.221685e+03,2.906884e+03
1.233256e+03,2.904159e+03
1.244827e+03,2.918327e+03
1.256398e+03,2.891315e+03
1.267969e+03,2.875307e+03
1.279539e+03,2.880354e+03
1.291110e+03,2.885809e+03
1.302681e+03,2.867366e+03
1.314252e+03,2.845054e+03
1.325823e+03,2.848833e+03
1.337393e+03,2.841280e+03
1.348964e+03,2.820298e+03
1.360535e+03,2.803917e+03
1.372106e+03,2.817971e+03
1.383677e+03,2.801237e+03
1.395247e+03,2.767652e+03
1.406818e+03,2.746059e+03
1.418389e+03,2.757282e+03
1.429960e+03,2.741658e+03
1.441531e+03,2.722220e+03
1.453101e+03,2.712775e+03
1.464672e+03,2.699509e+03
1.476243e+03,2.699557e+03
1.487814e+03,2.710791e+03
1.499385e+03,2.675730e+03
1.510955e+03,2.645800e+03
1.522526e+03,2.645709e+03
1.534097e+03,2.631987e+03
1.545668e+03,2.619093e+03
1.557239e+03,2.628958e+03
1.568809e+03,2.618455e+03
1.580380e+03,2.604863e+03
1.591951e+03,2.592528e+03
1.603522e+03,2.593317e+03
1.615093e+03,2.559616e+03
1.626663e+03,2.535701e+03
1.638234e+03,2.501316e+03
1.649805e+03,2.486440e+03
1.661376e+03,2.473976e+03
1.672947e+03,2.446917e+03
1.684517e+03,2.451886e+03
1.696088e+03,2.434196e+03
1.707659e+03,2.410945e+03
1.719230e+03,2.413697e+03
1.730801e+03,2.372302e+03
1.742371e+03,2.363170e+03
1.753942e+03,2.343938e+03
1.765513e+03,2.345009e+03
1.777084e+03,2.318275e+03
1.788655e+03,2.298526e+03
1.800225e+03,2.287026e+03
1.811796e+03,2.274784e+03
1.823367e+03,2.252276e+03
1.834938e+03,2.224676e+03
1.846509e+03,2.217979e+03
1.858079e+03,2.194318e+03
1.869650e+03,2.179489e+03
1.881221e+03,2.169446e+03
1.892792e+03,2.137398e+03
1.904363e+03,2.128262e+03
1.915933e+03,2.114150e+03
1.927504e+03,2.084807e+03
1.939075e+03,2.063419e+03
1.950646e+03,2.078112e+03
1.962217e+03,2.041998e+03
1.973787e+03,2.037912e+03
1.985358e+03,2.015345e+03
1.996929e+03,2.001832e+03
2.008500e+03,1.970804e+03
2.020071e+03,1.938761e+03
2.031641e+03,1.926195e+03
2.043212e+03,1.907547e+03
2.054783e+03,1.893920e+03
2.066354e+03,1.880452e+03
2.077925e+03,1.857594e+03
2.089496e+03,1.853703e+03
2.101066e+03,1.831048e+03
2.112637e+03,1.834947e+03
2.124208e+03,1.806347e+03
2.135779e+03,1.776188e+03
2.147350e+03,1.764090e+03
2.158920e+03,1.748975e+03
2.170491e+03,1.746553e+03
2.182062e+03,1.721783e+03
2.193633e+03,1.714302e+03
2.205204e+03,1.694289e+03
2.216774e+03,1.668847e+03
2.228345e+03,1.637976e+03
2.239916e+03,1.644480e+03
2.251487e+03,1.646148e+03
2.263058e+03,1.629261e+03
2.274628e+03,1.596467e+03
2.286199e+03,1.575877e+03
2.297770e+03,1.572130e+03
2.309341e+03,1.556949e+03
2.320912e+03,1.539329e+03
2.332482e+03,1.513309e+03
2.344053e+03,1.528517e+03
2.355624e+03,1.501519e+03
2.367195e+03,1.462099e+03
2.378766e+03,1.471089e+03
2.390336e+03,1.462543e+03
2.401907e+03,1.442266e+03
2.413478e+03,1.415200e+03
2.425049e+03,1.427761e+03
2.436620e+03,1.406437e+03
2.448190e+03,1.384158e+03
2.459761e+03,1.384180e+03
2.471332e+03,1.364470e+03
2.482903e+03,1.376318e+03
2.494474e+03,1.342829e+03
2.506044e+03,1.328539e+03
2.517615e+03,1.336377e+03
2.529186e+03,1.337435e+03
2.540757e+03,1.303272e+03
2.552328e+03,1.293651e+03
2.563898e+03,1.319454e+03
2.575469e+03,1.282438e+03
2.587040e+03,1.271183e+03
2.598611e+03,1.284518e+03
2.610182e+03,1.263655e+03
2.621752e+03,1.252052e+03
2.633323e+03,1.244269e+03
2.644894e+03,1.227777e+03
2.656465e+03,1.224168e+03
2.668036e+03,1.217232e+03
2.679606e+03,1.185059e+03
2.691177e+03,1.190828e+03
2.702748e+03,1.176799e+03
2.714319e+03,1.174324e+03
2.725890e+03,1.159781e+03
2.737460e+03,1.167624e+03
2.749031e+03,1.143840e+03
2.760602e+03,1.161283e+03
2.772173e+03,1.155572e+03
2.783744e+03,1.131724e+03
2.795314e+03,1.109815e+03
2.806885e+03,1.117067e+03
2.818456e+03,1.115039e+03
2.830027e+03,1.066184e+03
2.841598e+03,1.080750e+03
2.853168e+03,1.080521e+03
2.864739e+03,1.068691e+03
2.876310e+03,1.060247e+03
2.887881e+03,1.052395e+03
2.899452e+03,1.053552e+03
2.911022e+03,1.051979e+03
2.922593e+03,1.037486e+03
2.934164e+03,1.049357e+03
2.945735e+03,1.040470e+03
2.957306e+03,1.057726e+03
2.968876e+03,1.022119e+03
2.980447e+03,1.012257e+03
2.992018e+03,1.033454e+03
3.003589e+03,9.958799e+02
3.015160e+03,9.916121e+02
3.026730e+03,9.895324e+02
3.038301e+03,9.673492e+02
3.049872e+03,9.735516e+02
3.061443e+03,9.451981e+02
3.073014e+03,9.851966e+02
3.084584e+03,9.256404e+02
3.096155e+03,9.492866e+02
3.107726e+03,9.343979e+02
3.119297e+03,9.488636e+02
3.130868e+03,9.486282e+02
3.142438e+03,9.565905e+02
3.154009e+03,9.673183e+02
3.165580e+03,9.383021e+02
3.177151e+03,9.279375e+02
3.188722e+03,9.185988e+02
3.200292e+03,9.819860e+02
3.211863e+03,0.000000e+00
3.223434e+03,0.000000e+00
3.235005e+03,0.000000e+00
3.246576e+03,0.000000e+00
3.258146e+03,0.000000e+00
3.269717e+03,0.000000e+00
3.281288e+03,0.000000e+00
3.292859e+03,0.000000e+00
3.304430e+03,0.000000e+00
3.316000e+03,0.000000e+00
3.327571e+03,0.000000e+00
3.339142e+03,0.000000e+00
3.350713e+03,0.000000e+00
3.362284e+03,0.000000e+00
3.373854e+03,0.000000e+00
3.385425e+03,0.000000e+00
3.396996e+03,0.000000e+00
3.408567e+03,0.000000e+00
3.420138e+03,0.000000e+00
3.431708e+03,0.000000e+00
3.443279e+03,0.000000e+00
3.454850e+03,0.000000e+00
3.466421e+03,0.000000e+00
3.477992e+03,0.000000e+00
3.489563e+03,0.000000e+00
3.500169e+03,0.000000e+00