Folder: Taff_Bargoed_microplastics_data/RAMAN_data/13112023_r2 (part 3)

File: blue frag9.CSV
9.931763e+01,0.000000e+00
1.108884e+02,0.000000e+00
1.224592e+02,0.000000e+00
1.340300e+02,0.000000e+00
1.456008e+02,0.000000e+00
1.571716e+02,0.000000e+00
1.687424e+02,0.000000e+00
1.803132e+02,0.000000e+00
1.918840e+02,0.000000e+00
2.034548e+02,9.117182e+03
2.150256e+02,9.215080e+03
2.265964e+02,9.226448e+03
2.381673e+02,9.364213e+03
2.497381e+02,9.403319e+03
2.613088e+02,9.454561e+03
2.728796e+02,9.513550e+03
2.844504e+02,9.657763e+03
2.960212e+02,9.691813e+03
3.075920e+02,9.745093e+03
3.191628e+02,9.828018e+03
3.307336e+02,9.894400e+03
3.423044e+02,9.944550e+03
3.538752e+02,1.000290e+04
3.654461e+02,1.004530e+04
3.770169e+02,1.014268e+04
3.885877e+02,1.015255e+04
4.001585e+02,1.015336e+04
4.117293e+02,1.024137e+04
4.233001e+02,1.030085e+04
4.348709e+02,1.034118e+04
4.464417e+02,1.034392e+04
4.580125e+02,1.039102e+04
4.695833e+02,1.040853e+04
4.811541e+02,1.047455e+04
4.927249e+02,1.050358e+04
5.042957e+02,1.055753e+04
5.158665e+02,1.056096e+04
5.274373e+02,1.057927e+04
5.390081e+02,1.055412e+04
5.505789e+02,1.060016e+04
5.621497e+02,1.064358e+04
5.737205e+02,1.063852e+04
5.852913e+02,1.066639e+04
5.968621e+02,1.069245e+04
6.084329e+02,1.071612e+04
6.200037e+02,1.069235e+04
6.315745e+02,1.073908e+04
6.431453e+02,1.072623e+04
6.547161e+02,1.074882e+04
6.662869e+02,1.074429e+04
6.778577e+02,1.072919e+04
6.894285e+02,1.073831e+04
7.009993e+02,1.077488e+04
7.125701e+02,1.076798e+04
7.241409e+02,1.075332e+04
7.357117e+02,1.073876e+04
7.472825e+02,1.080357e+04
7.588533e+02,1.071306e+04
7.704241e+02,1.063075e+04
7.819949e+02,1.068482e+04
7.935657e+02,1.061426e+04
8.051365e+02,1.064963e+04
8.167073e+02,1.061998e+04
8.282781e+02,1.061799e+04
8.398489e+02,1.057690e+04
8.514197e+02,1.055408e+04
8.629905e+02,1.053416e+04
8.745613e+02,1.047672e+04
8.861321e+02,1.050941e+04
8.977029e+02,1.045175e+04
9.092737e+02,1.043306e+04
9.208445e+02,1.037837e+04
9.324153e+02,1.038131e+04
9.439861e+02,1.028881e+04
9.555569e+02,1.029722e+04
9.671277e+02,1.028411e+04
9.786985e+02,1.024126e+04
9.902693e+02,1.017471e+04
1.001840e+03,1.016122e+04
1.013411e+03,1.014228e+04
1.024982e+03,1.009609e+04
1.036552e+03,1.008343e+04
1.048123e+03,1.002658e+04
1.059694e+03,1.001721e+04
1.071265e+03,9.992855e+03
1.082836e+03,9.997297e+03
1.094406e+03,9.927799e+03
1.105977e+03,9.896313e+03
1.117548e+03,9.913094e+03
1.129119e+03,9.828005e+03
1.140690e+03,9.805553e+03
1.152261e+03,9.810262e+03
1.163831e+03,9.747021e+03
1.175402e+03,9.710161e+03
1.186973e+03,9.608712e+03
1.198544e+03,9.650369e+03
1.210115e+03,9.633710e+03
1.221685e+03,9.533923e+03
1.233256e+03,9.457291e+03
1.244827e+03,9.465515e+03
1.256398e+03,9.460295e+03
1.267969e+03,9.413480e+03
1.279539e+03,9.365469e+03
1.291110e+03,9.347286e+03
1.302681e+03,9.302639e+03
1.314252e+03,9.253438e+03
1.325823e+03,9.252440e+03
1.337393e+03,9.292938e+03
1.348964e+03,9.200804e+03
1.360535e+03,9.142862e+03
1.372106e+03,9.091458e+03
1.383677e+03,9.076697e+03
1.395247e+03,9.006355e+03
1.406818e+03,8.979530e+03
1.418389e+03,8.975218e+03
1.429960e+03,8.939937e+03
1.441531e+03,8.897036e+03
1.453101e+03,8.822894e+03
1.464672e+03,8.774408e+03
1.476243e+03,8.770318e+03
1.487814e+03,8.714004e+03
1.499385e+03,8.645769e+03
1.510955e+03,8.622866e+03
1.522526e+03,8.623574e+03
1.534097e+03,8.650278e+03
1.545668e+03,8.549689e+03
1.557239e+03,8.478762e+03
1.568809e+03,8.423611e+03
1.580380e+03,8.406253e+03
1.591951e+03,8.345944e+03
1.603522e+03,8.256514e+03
1.615093e+03,8.253839e+03
1.626663e+03,8.180801e+03
1.638234e+03,8.107756e+03
1.649805e+03,8.078468e+03
1.661376e+03,8.008462e+03
1.672947e+03,7.963884e+03
1.684517e+03,7.919226e+03
1.696088e+03,7.910040e+03
1.707659e+03,7.849334e+03
1.719230e+03,7.727737e+03
1.730801e+03,7.736743e+03
1.742371e+03,7.663367e+03
1.753942e+03,7.636522e+03
1.765513e+03,7.561045e+03
1.777084e+03,7.545915e+03
1.788655e+03,7.463596e+03
1.800225e+03,7.427575e+03
1.811796e+03,7.377125e+03
1.823367e+03,7.296686e+03
1.834938e+03,7.320838e+03
1.846509e+03,7.241065e+03
1.858079e+03,7.166003e+03
1.869650e+03,7.119867e+03
1.881221e+03,7.046215e+03
1.892792e+03,7.004651e+03
1.904363e+03,6.927006e+03
1.915933e+03,6.886261e+03
1.927504e+03,6.831925e+03
1.939075e+03,6.824523e+03
1.950646e+03,6.704374e+03
1.962217e+03,6.690146e+03
1.973787e+03,6.625745e+03
1.985358e+03,6.584873e+03
1.996929e+03,6.530074e+03
2.008500e+03,6.477753e+03
2.020071e+03,6.401774e+03
2.031641e+03,6.372550e+03
2.043212e+03,6.309948e+03
2.054783e+03,6.232405e+03
2.066354e+03,6.215637e+03
2.077925e+03,6.158921e+03
2.089496e+03,6.068516e+03
2.101066e+03,6.004850e+03
2.112637e+03,5.971002e+03
2.124208e+03,5.919755e+03
2.135779e+03,5.886770e+03
2.147350e+03,5.779621e+03
2.158920e+03,5.743310e+03
2.170491e+03,5.725139e+03
2.182062e+03,5.619313e+03
2.193633e+03,5.583354e+03
2.205204e+03,5.551158e+03
2.216774e+03,5.523851e+03
2.228345e+03,5.419170e+03
2.239916e+03,5.392239e+03
2.251487e+03,5.332136e+03
2.263058e+03,5.249481e+03
2.274628e+03,5.220978e+03
2.286199e+03,5.149042e+03
2.297770e+03,5.150937e+03
2.309341e+03,5.031303e+03
2.320912e+03,5.019012e+03
2.332482e+03,4.942962e+03
2.344053e+03,4.929991e+03
2.355624e+03,4.907421e+03
2.367195e+03,4.831361e+03
2.378766e+03,4.789280e+03
2.390336e+03,4.745046e+03
2.401907e+03,4.725686e+03
2.413478e+03,4.613516e+03
2.425049e+03,4.612792e+03
2.436620e+03,4.561910e+03
2.448190e+03,4.491646e+03
2.459761e+03,4.471243e+03
2.471332e+03,4.401236e+03
2.482903e+03,4.399413e+03
2.494474e+03,4.335824e+03
2.506044e+03,4.311489e+03
2.517615e+03,4.289330e+03
2.529186e+03,4.247678e+03
2.540757e+03,4.198037e+03
2.552328e+03,4.134655e+03
2.563898e+03,4.125594e+03
2.575469e+03,4.093979e+03
2.587040e+03,4.019583e+03
2.598611e+03,3.990962e+03
2.610182e+03,3.936556e+03
2.621752e+03,3.933828e+03
2.633323e+03,3.889223e+03
2.644894e+03,3.880434e+03
2.656465e+03,3.851687e+03
2.668036e+03,3.787580e+03
2.679606e+03,3.754266e+03
2.691177e+03,3.716405e+03
2.702748e+03,3.691607e+03
2.714319e+03,3.686379e+03
2.725890e+03,3.623097e+03
2.737460e+03,3.615372e+03
2.749031e+03,3.587579e+03
2.760602e+03,3.533151e+03
2.772173e+03,3.549972e+03
2.783744e+03,3.480630e+03
2.795314e+03,3.436243e+03
2.806885e+03,3.407029e+03
2.818456e+03,3.397441e+03
2.830027e+03,3.325451e+03
2.841598e+03,3.373231e+03
2.853168e+03,3.325495e+03
2.864739e+03,3.291323e+03
2.876310e+03,3.310064e+03
2.887881e+03,3.285932e+03
2.899452e+03,3.261988e+03
2.911022e+03,3.216323e+03
2.922593e+03,3.174822e+03
2.934164e+03,3.188276e+03
2.945735e+03,3.163872e+03
2.957306e+03,3.146968e+03
2.968876e+03,3.063608e+03
2.980447e+03,3.060384e+03
2.992018e+03,3.053866e+03
3.003589e+03,2.990104e+03
3.015160e+03,2.941971e+03
3.026730e+03,2.942016e+03
3.038301e+03,2.914788e+03
3.049872e+03,2.911969e+03
3.061443e+03,2.887104e+03
3.073014e+03,2.864444e+03
3.084584e+03,2.821243e+03
3.096155e+03,2.827673e+03
3.107726e+03,2.788655e+03
3.119297e+03,2.810243e+03
3.130868e+03,2.819167e+03
3.142438e+03,2.843561e+03
3.154009e+03,2.813030e+03
3.165580e+03,2.834957e+03
3.177151e+03,2.795803e+03
3.188722e+03,2.797036e+03
3.200292e+03,2.823181e+03
3.211863e+03,0.000000e+00
3.223434e+03,0.000000e+00
3.235005e+03,0.000000e+00
3.246576e+03,0.000000e+00
3.258146e+03,0.000000e+00
3.269717e+03,0.000000e+00
3.281288e+03,0.000000e+00
3.292859e+03,0.000000e+00
3.304430e+03,0.000000e+00
3.316000e+03,0.000000e+00
3.327571e+03,0.000000e+00
3.339142e+03,0.000000e+00
3.350713e+03,0.000000e+00
3.362284e+03,0.000000e+00
3.373854e+03,0.000000e+00
3.385425e+03,0.000000e+00
3.396996e+03,0.000000e+00
3.408567e+03,0.000000e+00
3.420138e+03,0.000000e+00
3.431708e+03,0.000000e+00
3.443279e+03,0.000000e+00
3.454850e+03,0.000000e+00
3.466421e+03,0.000000e+00
3.477992e+03,0.000000e+00
3.489563e+03,0.000000e+00
3.500169e+03,0.000000e+00