Folder: Taff_Bargoed_microplastics_data/RAMAN_data/13112023_r2 (part 2)

File: blue frag1.CSV
9.931763e+01,0.000000e+00
1.108884e+02,0.000000e+00
1.224592e+02,0.000000e+00
1.340300e+02,0.000000e+00
1.456008e+02,0.000000e+00
1.571716e+02,0.000000e+00
1.687424e+02,0.000000e+00
1.803132e+02,0.000000e+00
1.918840e+02,0.000000e+00
2.034548e+02,5.107894e+03
2.150256e+02,5.127195e+03
2.265964e+02,5.158244e+03
2.381673e+02,5.189222e+03
2.497381e+02,5.215414e+03
2.613088e+02,5.219014e+03
2.728796e+02,5.236614e+03
2.844504e+02,5.312269e+03
2.960212e+02,5.332214e+03
3.075920e+02,5.347620e+03
3.191628e+02,5.382539e+03
3.307336e+02,5.429163e+03
3.423044e+02,5.428386e+03
3.538752e+02,5.433158e+03
3.654461e+02,5.468072e+03
3.770169e+02,5.502126e+03
3.885877e+02,5.501095e+03
4.001585e+02,5.486952e+03
4.117293e+02,5.530243e+03
4.233001e+02,5.555990e+03
4.348709e+02,5.575687e+03
4.464417e+02,5.530034e+03
4.580125e+02,5.557628e+03
4.695833e+02,5.588490e+03
4.811541e+02,5.577165e+03
4.927249e+02,5.590971e+03
5.042957e+02,5.592296e+03
5.158665e+02,5.627281e+03
5.274373e+02,5.603070e+03
5.390081e+02,5.617246e+03
5.505789e+02,5.614057e+03
5.621497e+02,5.643318e+03
5.737205e+02,5.641910e+03
5.852913e+02,5.629089e+03
5.968621e+02,5.644172e+03
6.084329e+02,5.681803e+03
6.200037e+02,5.623392e+03
6.315745e+02,5.642897e+03
6.431453e+02,5.656781e+03
6.547161e+02,5.663123e+03
6.662869e+02,5.641700e+03
6.778577e+02,5.619942e+03
6.894285e+02,5.619798e+03
7.009993e+02,5.644005e+03
7.125701e+02,5.664292e+03
7.241409e+02,5.630479e+03
7.357117e+02,5.592751e+03
7.472825e+02,5.650417e+03
7.588533e+02,5.612855e+03
7.704241e+02,5.573367e+03
7.819949e+02,5.579835e+03
7.935657e+02,5.587711e+03
8.051365e+02,5.574253e+03
8.167073e+02,5.544334e+03
8.282781e+02,5.518869e+03
8.398489e+02,5.539845e+03
8.514197e+02,5.506299e+03
8.629905e+02,5.523603e+03
8.745613e+02,5.504963e+03
8.861321e+02,5.514125e+03
8.977029e+02,5.502200e+03
9.092737e+02,5.482279e+03
9.208445e+02,5.430679e+03
9.324153e+02,5.418109e+03
9.439861e+02,5.438517e+03
9.555569e+02,5.420266e+03
9.671277e+02,5.407349e+03
9.786985e+02,5.398747e+03
9.902693e+02,5.373208e+03
1.001840e+03,5.360625e+03
1.013411e+03,5.340474e+03
1.024982e+03,5.357682e+03
1.036552e+03,5.337702e+03
1.048123e+03,5.326405e+03
1.059694e+03,5.311639e+03
1.071265e+03,5.307662e+03
1.082836e+03,5.315226e+03
1.094406e+03,5.322220e+03
1.105977e+03,5.293218e+03
1.117548e+03,5.301510e+03
1.129119e+03,5.241885e+03
1.140690e+03,5.234239e+03
1.152261e+03,5.231654e+03
1.163831e+03,5.223365e+03
1.175402e+03,5.164542e+03
1.186973e+03,5.170334e+03
1.198544e+03,5.175217e+03
1.210115e+03,5.154554e+03
1.221685e+03,5.139314e+03
1.233256e+03,5.102467e+03
1.244827e+03,5.121837e+03
1.256398e+03,5.098728e+03
1.267969e+03,5.078349e+03
1.279539e+03,5.086223e+03
1.291110e+03,5.069717e+03
1.302681e+03,5.056811e+03
1.314252e+03,5.034740e+03
1.325823e+03,5.045734e+03
1.337393e+03,5.073215e+03
1.348964e+03,5.027728e+03
1.360535e+03,5.011323e+03
1.372106e+03,5.002571e+03
1.383677e+03,4.986859e+03
1.395247e+03,4.958424e+03
1.406818e+03,4.929492e+03
1.418389e+03,4.886792e+03
1.429960e+03,4.909986e+03
1.441531e+03,4.883075e+03
1.453101e+03,4.868867e+03
1.464672e+03,4.844366e+03
1.476243e+03,4.845145e+03
1.487814e+03,4.822461e+03
1.499385e+03,4.805551e+03
1.510955e+03,4.786818e+03
1.522526e+03,4.786071e+03
1.534097e+03,4.791805e+03
1.545668e+03,4.750349e+03
1.557239e+03,4.708761e+03
1.568809e+03,4.710065e+03
1.580380e+03,4.707321e+03
1.591951e+03,4.675747e+03
1.603522e+03,4.633763e+03
1.615093e+03,4.623953e+03
1.626663e+03,4.587821e+03
1.638234e+03,4.563659e+03
1.649805e+03,4.544008e+03
1.661376e+03,4.497756e+03
1.672947e+03,4.473211e+03
1.684517e+03,4.466570e+03
1.696088e+03,4.440639e+03
1.707659e+03,4.425647e+03
1.719230e+03,4.397630e+03
1.730801e+03,4.344819e+03
1.742371e+03,4.316282e+03
1.753942e+03,4.303387e+03
1.765513e+03,4.296788e+03
1.777084e+03,4.247550e+03
1.788655e+03,4.229857e+03
1.800225e+03,4.212288e+03
1.811796e+03,4.183820e+03
1.823367e+03,4.162990e+03
1.834938e+03,4.112512e+03
1.846509e+03,4.099146e+03
1.858079e+03,4.061720e+03
1.869650e+03,4.047758e+03
1.881221e+03,4.046638e+03
1.892792e+03,3.978747e+03
1.904363e+03,3.975806e+03
1.915933e+03,3.949027e+03
1.927504e+03,3.907901e+03
1.939075e+03,3.881235e+03
1.950646e+03,3.844246e+03
1.962217e+03,3.835992e+03
1.973787e+03,3.807712e+03
1.985358e+03,3.773218e+03
1.996929e+03,3.732765e+03
2.008500e+03,3.720848e+03
2.020071e+03,3.705723e+03
2.031641e+03,3.657630e+03
2.043212e+03,3.606284e+03
2.054783e+03,3.581086e+03
2.066354e+03,3.589770e+03
2.077925e+03,3.548305e+03
2.089496e+03,3.512624e+03
2.101066e+03,3.496618e+03
2.112637e+03,3.429727e+03
2.124208e+03,3.444627e+03
2.135779e+03,3.401796e+03
2.147350e+03,3.346746e+03
2.158920e+03,3.342459e+03
2.170491e+03,3.333043e+03
2.182062e+03,3.276240e+03
2.193633e+03,3.257765e+03
2.205204e+03,3.263602e+03
2.216774e+03,3.194487e+03
2.228345e+03,3.163284e+03
2.239916e+03,3.135253e+03
2.251487e+03,3.135793e+03
2.263058e+03,3.092638e+03
2.274628e+03,3.060346e+03
2.286199e+03,3.037582e+03
2.297770e+03,3.021390e+03
2.309341e+03,2.992676e+03
2.320912e+03,2.974954e+03
2.332482e+03,2.938366e+03
2.344053e+03,2.939808e+03
2.355624e+03,2.903749e+03
2.367195e+03,2.852778e+03
2.378766e+03,2.847396e+03
2.390336e+03,2.840360e+03
2.401907e+03,2.813496e+03
2.413478e+03,2.769042e+03
2.425049e+03,2.734054e+03
2.436620e+03,2.754117e+03
2.448190e+03,2.699659e+03
2.459761e+03,2.695046e+03
2.471332e+03,2.645466e+03
2.482903e+03,2.668120e+03
2.494474e+03,2.622845e+03
2.506044e+03,2.600501e+03
2.517615e+03,2.602073e+03
2.529186e+03,2.570832e+03
2.540757e+03,2.576897e+03
2.552328e+03,2.536696e+03
2.563898e+03,2.521819e+03
2.575469e+03,2.501474e+03
2.587040e+03,2.492128e+03
2.598611e+03,2.449853e+03
2.610182e+03,2.432195e+03
2.621752e+03,2.420701e+03
2.633323e+03,2.386878e+03
2.644894e+03,2.376743e+03
2.656465e+03,2.372697e+03
2.668036e+03,2.368812e+03
2.679606e+03,2.334109e+03
2.691177e+03,2.335847e+03
2.702748e+03,2.295568e+03
2.714319e+03,2.320238e+03
2.725890e+03,2.257031e+03
2.737460e+03,2.262311e+03
2.749031e+03,2.243903e+03
2.760602e+03,2.216091e+03
2.772173e+03,2.218771e+03
2.783744e+03,2.173245e+03
2.795314e+03,2.182063e+03
2.806885e+03,2.146143e+03
2.818456e+03,2.139540e+03
2.830027e+03,2.114406e+03
2.841598e+03,2.157641e+03
2.853168e+03,2.112366e+03
2.864739e+03,2.076890e+03
2.876310e+03,2.109400e+03
2.887881e+03,2.068711e+03
2.899452e+03,2.083183e+03
2.911022e+03,2.070177e+03
2.922593e+03,2.027756e+03
2.934164e+03,2.025200e+03
2.945735e+03,2.039310e+03
2.957306e+03,2.014174e+03
2.968876e+03,1.940791e+03
2.980447e+03,1.946614e+03
2.992018e+03,1.923591e+03
3.003589e+03,1.894081e+03
3.015160e+03,1.908094e+03
3.026730e+03,1.900666e+03
3.038301e+03,1.876531e+03
3.049872e+03,1.901832e+03
3.061443e+03,1.852017e+03
3.073014e+03,1.843269e+03
3.084584e+03,1.833160e+03
3.096155e+03,1.849885e+03
3.107726e+03,1.847064e+03
3.119297e+03,1.805687e+03
3.130868e+03,1.849479e+03
3.142438e+03,1.819988e+03
3.154009e+03,1.831289e+03
3.165580e+03,1.818507e+03
3.177151e+03,1.792702e+03
3.188722e+03,1.774936e+03
3.200292e+03,1.783368e+03
3.211863e+03,0.000000e+00
3.223434e+03,0.000000e+00
3.235005e+03,0.000000e+00
3.246576e+03,0.000000e+00
3.258146e+03,0.000000e+00
3.269717e+03,0.000000e+00
3.281288e+03,0.000000e+00
3.292859e+03,0.000000e+00
3.304430e+03,0.000000e+00
3.316000e+03,0.000000e+00
3.327571e+03,0.000000e+00
3.339142e+03,0.000000e+00
3.350713e+03,0.000000e+00
3.362284e+03,0.000000e+00
3.373854e+03,0.000000e+00
3.385425e+03,0.000000e+00
3.396996e+03,0.000000e+00
3.408567e+03,0.000000e+00
3.420138e+03,0.000000e+00
3.431708e+03,0.000000e+00
3.443279e+03,0.000000e+00
3.454850e+03,0.000000e+00
3.466421e+03,0.000000e+00
3.477992e+03,0.000000e+00
3.489563e+03,0.000000e+00
3.500169e+03,0.000000e+00

File: blue frag2.CSV
9.931763e+01,0.000000e+00
1.108884e+02,0.000000e+00
1.224592e+02,0.000000e+00
1.340300e+02,0.000000e+00
1.456008e+02,0.000000e+00
1.571716e+02,0.000000e+00
1.687424e+02,0.000000e+00
1.803132e+02,0.000000e+00
1.918840e+02,0.000000e+00
2.034548e+02,1.051899e+04
2.150256e+02,1.057905e+04
2.265964e+02,1.068651e+04
2.381673e+02,1.083713e+04
2.497381e+02,1.092278e+04
2.613088e+02,1.101875e+04
2.728796e+02,1.114345e+04
2.844504e+02,1.128443e+04
2.960212e+02,1.138987e+04
3.075920e+02,1.148845e+04
3.191628e+02,1.160775e+04
3.307336e+02,1.175910e+04
3.423044e+02,1.188976e+04
3.538752e+02,1.203829e+04
3.654461e+02,1.215099e+04
3.770169e+02,1.231110e+04
3.885877e+02,1.246675e+04
4.001585e+02,1.259455e+04
4.117293e+02,1.274362e+04
4.233001e+02,1.288550e+04
4.348709e+02,1.304495e+04
4.464417e+02,1.321596e+04
4.580125e+02,1.333318e+04
4.695833e+02,1.347341e+04
4.811541e+02,1.360224e+04
4.927249e+02,1.374474e+04
5.042957e+02,1.387491e+04
5.158665e+02,1.399692e+04
5.274373e+02,1.410203e+04
5.390081e+02,1.416972e+04
5.505789e+02,1.428556e+04
5.621497e+02,1.439837e+04
5.737205e+02,1.446632e+04
5.852913e+02,1.457575e+04
5.968621e+02,1.471280e+04
6.084329e+02,1.480358e+04
6.200037e+02,1.484330e+04
6.315745e+02,1.490827e+04
6.431453e+02,1.500741e+04
6.547161e+02,1.510578e+04
6.662869e+02,1.514584e+04
6.778577e+02,1.514799e+04
6.894285e+02,1.519395e+04
7.009993e+02,1.527256e+04
7.125701e+02,1.527661e+04
7.241409e+02,1.527022e+04
7.357117e+02,1.526974e+04
7.472825e+02,1.529838e+04
7.588533e+02,1.525349e+04
7.704241e+02,1.520913e+04
7.819949e+02,1.520059e+04
7.935657e+02,1.517592e+04
8.051365e+02,1.511077e+04
8.167073e+02,1.508295e+04
8.282781e+02,1.504160e+04
8.398489e+02,1.497732e+04
8.514197e+02,1.485258e+04
8.629905e+02,1.478478e+04
8.745613e+02,1.470254e+04
8.861321e+02,1.467136e+04
8.977029e+02,1.454933e+04
9.092737e+02,1.445538e+04
9.208445e+02,1.435555e+04
9.324153e+02,1.430228e+04
9.439861e+02,1.419758e+04
9.555569e+02,1.405309e+04
9.671277e+02,1.394241e+04
9.786985e+02,1.383075e+04
9.902693e+02,1.367490e+04
1.001840e+03,1.353509e+04
1.013411e+03,1.346450e+04
1.024982e+03,1.337917e+04
1.036552e+03,1.323313e+04
1.048123e+03,1.311727e+04
1.059694e+03,1.305441e+04
1.071265e+03,1.300379e+04
1.082836e+03,1.290117e+04
1.094406e+03,1.274686e+04
1.105977e+03,1.268010e+04
1.117548e+03,1.262516e+04
1.129119e+03,1.251101e+04
1.140690e+03,1.242159e+04
1.152261e+03,1.239111e+04
1.163831e+03,1.232199e+04
1.175402e+03,1.221769e+04
1.186973e+03,1.215562e+04
1.198544e+03,1.215958e+04
1.210115e+03,1.211081e+04
1.221685e+03,1.206943e+04
1.233256e+03,1.204628e+04
1.244827e+03,1.207817e+04
1.256398e+03,1.208695e+04
1.267969e+03,1.206690e+04
1.279539e+03,1.209122e+04
1.291110e+03,1.213679e+04
1.302681e+03,1.218424e+04
1.314252e+03,1.220847e+04
1.325823e+03,1.225572e+04
1.337393e+03,1.235253e+04
1.348964e+03,1.241398e+04
1.360535e+03,1.246655e+04
1.372106e+03,1.257025e+04
1.383677e+03,1.270507e+04
1.395247e+03,1.281187e+04
1.406818e+03,1.293171e+04
1.418389e+03,1.311750e+04
1.429960e+03,1.328471e+04
1.441531e+03,1.341893e+04
1.453101e+03,1.357500e+04
1.464672e+03,1.378792e+04
1.476243e+03,1.403125e+04
1.487814e+03,1.425464e+04
1.499385e+03,1.445623e+04
1.510955e+03,1.473543e+04
1.522526e+03,1.498123e+04
1.534097e+03,1.514749e+04
1.545668e+03,1.526807e+04
1.557239e+03,1.541226e+04
1.568809e+03,1.547092e+04
1.580380e+03,1.547388e+04
1.591951e+03,1.549257e+04
1.603522e+03,1.560449e+04
1.615093e+03,1.548123e+04
1.626663e+03,1.541982e+04
1.638234e+03,1.525950e+04
1.649805e+03,1.512228e+04
1.661376e+03,1.500833e+04
1.672947e+03,1.487470e+04
1.684517e+03,1.473175e+04
1.696088e+03,1.472972e+04
1.707659e+03,1.459537e+04
1.719230e+03,1.444905e+04
1.730801e+03,1.435614e+04
1.742371e+03,1.421892e+04
1.753942e+03,1.415561e+04
1.765513e+03,1.402001e+04
1.777084e+03,1.391283e+04
1.788655e+03,1.384624e+04
1.800225e+03,1.369902e+04
1.811796e+03,1.364096e+04
1.823367e+03,1.347180e+04
1.834938e+03,1.337497e+04
1.846509e+03,1.328831e+04
1.858079e+03,1.315310e+04
1.869650e+03,1.298704e+04
1.881221e+03,1.289842e+04
1.892792e+03,1.283756e+04
1.904363e+03,1.270576e+04
1.915933e+03,1.255371e+04
1.927504e+03,1.250314e+04
1.939075e+03,1.234374e+04
1.950646e+03,1.224892e+04
1.962217e+03,1.212737e+04
1.973787e+03,1.200925e+04
1.985358e+03,1.190969e+04
1.996929e+03,1.178256e+04
2.008500e+03,1.159664e+04
2.020071e+03,1.157155e+04
2.031641e+03,1.146875e+04
2.043212e+03,1.133147e+04
2.054783e+03,1.114518e+04
2.066354e+03,1.112904e+04
2.077925e+03,1.106054e+04
2.089496e+03,1.084965e+04
2.101066e+03,1.077144e+04
2.112637e+03,1.066595e+04
2.124208e+03,1.053120e+04
2.135779e+03,1.041066e+04
2.147350e+03,1.026222e+04
2.158920e+03,1.018182e+04
2.170491e+03,1.006698e+04
2.182062e+03,9.979271e+03
2.193633e+03,9.880081e+03
2.205204e+03,9.783496e+03
2.216774e+03,9.677411e+03
2.228345e+03,9.463888e+03
2.239916e+03,9.420799e+03
2.251487e+03,9.332085e+03
2.263058e+03,9.151100e+03
2.274628e+03,9.068639e+03
2.286199e+03,8.965307e+03
2.297770e+03,8.896926e+03
2.309341e+03,8.767521e+03
2.320912e+03,8.642237e+03
2.332482e+03,8.530286e+03
2.344053e+03,8.521169e+03
2.355624e+03,8.393222e+03
2.367195e+03,8.273287e+03
2.378766e+03,8.158028e+03
2.390336e+03,8.095831e+03
2.401907e+03,7.950700e+03
2.413478e+03,7.874736e+03
2.425049e+03,7.794709e+03
2.436620e+03,7.739636e+03
2.448190e+03,7.623813e+03
2.459761e+03,7.560241e+03
2.471332e+03,7.443425e+03
2.482903e+03,7.383797e+03
2.494474e+03,7.272807e+03
2.506044e+03,7.223257e+03
2.517615e+03,7.118562e+03
2.529186e+03,7.035453e+03
2.540757e+03,6.966539e+03
2.552328e+03,6.893102e+03
2.563898e+03,6.842888e+03
2.575469e+03,6.741030e+03
2.587040e+03,6.652871e+03
2.598611e+03,6.590597e+03
2.610182e+03,6.541250e+03
2.621752e+03,6.465040e+03
2.633323e+03,6.447125e+03
2.644894e+03,6.349523e+03
2.656465e+03,6.258430e+03
2.668036e+03,6.201243e+03
2.679606e+03,6.112331e+03
2.691177e+03,6.069656e+03
2.702748e+03,6.031739e+03
2.714319e+03,5.933269e+03
2.725890e+03,5.875088e+03
2.737460e+03,5.800054e+03
2.749031e+03,5.762677e+03
2.760602e+03,5.738345e+03
2.772173e+03,5.694545e+03
2.783744e+03,5.570649e+03
2.795314e+03,5.550821e+03
2.806885e+03,5.497306e+03
2.818456e+03,5.394258e+03
2.830027e+03,5.379356e+03
2.841598e+03,5.347984e+03
2.853168e+03,5.312729e+03
2.864739e+03,5.267516e+03
2.876310e+03,5.256485e+03
2.887881e+03,5.167648e+03
2.899452e+03,5.184470e+03
2.911022e+03,5.094781e+03
2.922593e+03,5.031711e+03
2.934164e+03,4.995399e+03
2.945735e+03,4.948431e+03
2.957306e+03,4.866024e+03
2.968876e+03,4.889886e+03
2.980447e+03,4.823417e+03
2.992018e+03,4.798383e+03
3.003589e+03,4.737282e+03
3.015160e+03,4.684655e+03
3.026730e+03,4.666211e+03
3.038301e+03,4.625899e+03
3.049872e+03,4.616638e+03
3.061443e+03,4.600643e+03
3.073014e+03,4.509248e+03
3.084584e+03,4.513177e+03
3.096155e+03,4.446771e+03
3.107726e+03,4.467768e+03
3.119297e+03,4.423661e+03
3.130868e+03,4.352812e+03
3.142438e+03,4.397047e+03
3.154009e+03,4.424078e+03
3.165580e+03,4.329125e+03
3.177151e+03,4.389146e+03
3.188722e+03,4.270029e+03
3.200292e+03,4.348501e+03
3.211863e+03,0.000000e+00
3.223434e+03,0.000000e+00
3.235005e+03,0.000000e+00
3.246576e+03,0.000000e+00
3.258146e+03,0.000000e+00
3.269717e+03,0.000000e+00
3.281288e+03,0.000000e+00
3.292859e+03,0.000000e+00
3.304430e+03,0.000000e+00
3.316000e+03,0.000000e+00
3.327571e+03,0.000000e+00
3.339142e+03,0.000000e+00
3.350713e+03,0.000000e+00
3.362284e+03,0.000000e+00
3.373854e+03,0.000000e+00
3.385425e+03,0.000000e+00
3.396996e+03,0.000000e+00
3.408567e+03,0.000000e+00
3.420138e+03,0.000000e+00
3.431708e+03,0.000000e+00
3.443279e+03,0.000000e+00
3.454850e+03,0.000000e+00
3.466421e+03,0.000000e+00
3.477992e+03,0.000000e+00
3.489563e+03,0.000000e+00
3.500169e+03,0.000000e+00

File: blue frag4.CSV
9.931763e+01,0.000000e+00
1.108884e+02,0.000000e+00
1.224592e+02,0.000000e+00
1.340300e+02,0.000000e+00
1.456008e+02,0.000000e+00
1.571716e+02,0.000000e+00
1.687424e+02,0.000000e+00
1.803132e+02,0.000000e+00
1.918840e+02,0.000000e+00
2.034548e+02,1.051899e+04
2.150256e+02,1.057905e+04
2.265964e+02,1.068651e+04
2.381673e+02,1.083713e+04
2.497381e+02,1.092278e+04
2.613088e+02,1.101875e+04
2.728796e+02,1.114345e+04
2.844504e+02,1.128443e+04
2.960212e+02,1.138987e+04
3.075920e+02,1.148845e+04
3.191628e+02,1.160749e+04
3.307336e+02,1.173318e+04
3.423044e+02,1.185578e+04
3.538752e+02,1.194617e+04
3.654461e+02,1.203461e+04
3.770169e+02,1.217452e+04
3.885877e+02,1.227040e+04
4.001585e+02,1.234246e+04
4.117293e+02,1.242607e+04
4.233001e+02,1.253488e+04
4.348709e+02,1.261718e+04
4.464417e+02,1.261214e+04
4.580125e+02,1.270736e+04
4.695833e+02,1.274802e+04
4.811541e+02,1.282727e+04
4.927249e+02,1.287542e+04
5.042957e+02,1.293112e+04
5.158665e+02,1.299716e+04
5.274373e+02,1.304942e+04
5.390081e+02,1.309128e+04
5.505789e+02,1.310430e+04
5.621497e+02,1.316603e+04
5.737205e+02,1.322816e+04
5.852913e+02,1.325175e+04
5.968621e+02,1.324956e+04
6.084329e+02,1.326469e+04
6.200037e+02,1.322469e+04
6.315745e+02,1.322606e+04
6.431453e+02,1.319974e+04
6.547161e+02,1.323800e+04
6.662869e+02,1.324367e+04
6.778577e+02,1.317500e+04
6.894285e+02,1.316829e+04
7.009993e+02,1.316670e+04
7.125701e+02,1.319757e+04
7.241409e+02,1.315605e+04
7.357117e+02,1.314486e+04
7.472825e+02,1.319807e+04
7.588533e+02,1.307582e+04
7.704241e+02,1.300469e+04
7.819949e+02,1.301634e+04
7.935657e+02,1.301208e+04
8.051365e+02,1.293351e+04
8.167073e+02,1.293529e+04
8.282781e+02,1.288026e+04
8.398489e+02,1.289211e+04
8.514197e+02,1.280679e+04
8.629905e+02,1.279517e+04
8.745613e+02,1.275262e+04
8.861321e+02,1.273566e+04
8.977029e+02,1.268345e+04
9.092737e+02,1.261765e+04
9.208445e+02,1.257068e+04
9.324153e+02,1.252979e+04
9.439861e+02,1.248042e+04
9.555569e+02,1.241237e+04
9.671277e+02,1.236423e+04
9.786985e+02,1.232747e+04
9.902693e+02,1.225604e+04
1.001840e+03,1.221233e+04
1.013411e+03,1.215263e+04
1.024982e+03,1.211540e+04
1.036552e+03,1.205740e+04
1.048123e+03,1.200296e+04
1.059694e+03,1.197319e+04
1.071265e+03,1.193257e+04
1.082836e+03,1.187093e+04
1.094406e+03,1.177989e+04
1.105977e+03,1.171786e+04
1.117548e+03,1.168075e+04
1.129119e+03,1.159666e+04
1.140690e+03,1.153622e+04
1.152261e+03,1.152821e+04
1.163831e+03,1.144685e+04
1.175402e+03,1.136238e+04
1.186973e+03,1.130271e+04
1.198544e+03,1.130969e+04
1.210115e+03,1.124827e+04
1.221685e+03,1.116448e+04
1.233256e+03,1.111698e+04
1.244827e+03,1.113170e+04
1.256398e+03,1.107334e+04
1.267969e+03,1.104657e+04
1.279539e+03,1.103164e+04
1.291110e+03,1.100830e+04
1.302681e+03,1.096684e+04
1.314252e+03,1.083755e+04
1.325823e+03,1.084647e+04
1.337393e+03,1.087532e+04
1.348964e+03,1.076885e+04
1.360535e+03,1.065663e+04
1.372106e+03,1.065031e+04
1.383677e+03,1.058471e+04
1.395247e+03,1.053692e+04
1.406818e+03,1.045377e+04
1.418389e+03,1.043126e+04
1.429960e+03,1.037878e+04
1.441531e+03,1.029066e+04
1.453101e+03,1.022624e+04
1.464672e+03,1.018101e+04
1.476243e+03,1.011882e+04
1.487814e+03,1.004770e+04
1.499385e+03,9.944189e+03
1.510955e+03,9.958047e+03
1.522526e+03,9.908456e+03
1.534097e+03,9.918469e+03
1.545668e+03,9.816548e+03
1.557239e+03,9.762982e+03
1.568809e+03,9.720107e+03
1.580380e+03,9.656775e+03
1.591951e+03,9.602146e+03
1.603522e+03,9.546765e+03
1.615093e+03,9.532404e+03
1.626663e+03,9.360951e+03
1.638234e+03,9.300887e+03
1.649805e+03,9.239688e+03
1.661376e+03,9.223126e+03
1.672947e+03,9.110968e+03
1.684517e+03,9.030229e+03
1.696088e+03,9.035440e+03
1.707659e+03,8.986901e+03
1.719230e+03,8.898156e+03
1.730801e+03,8.817813e+03
1.742371e+03,8.773062e+03
1.753942e+03,8.712788e+03
1.765513e+03,8.652952e+03
1.777084e+03,8.559374e+03
1.788655e+03,8.521934e+03
1.800225e+03,8.478716e+03
1.811796e+03,8.392982e+03
1.823367e+03,8.339359e+03
1.834938e+03,8.292200e+03
1.846509e+03,8.225081e+03
1.858079e+03,8.184414e+03
1.869650e+03,8.105329e+03
1.881221e+03,8.019079e+03
1.892792e+03,8.001909e+03
1.904363e+03,7.852047e+03
1.915933e+03,7.834803e+03
1.927504e+03,7.784389e+03
1.939075e+03,7.726647e+03
1.950646e+03,7.673029e+03
1.962217e+03,7.613354e+03
1.973787e+03,7.541285e+03
1.985358e+03,7.433347e+03
1.996929e+03,7.397172e+03
2.008500e+03,7.372117e+03
2.020071e+03,7.267629e+03
2.031641e+03,7.177674e+03
2.043212e+03,7.141537e+03
2.054783e+03,7.063106e+03
2.066354e+03,7.008750e+03
2.077925e+03,6.922235e+03
2.089496e+03,6.895587e+03
2.101066e+03,6.811242e+03
2.112637e+03,6.734624e+03
2.124208e+03,6.699889e+03
2.135779e+03,6.615656e+03
2.147350e+03,6.520495e+03
2.158920e+03,6.491733e+03
2.170491e+03,6.446681e+03
2.182062e+03,6.360817e+03
2.193633e+03,6.287751e+03
2.205204e+03,6.254156e+03
2.216774e+03,6.201741e+03
2.228345e+03,6.087323e+03
2.239916e+03,6.013396e+03
2.251487e+03,5.974019e+03
2.263058e+03,5.943658e+03
2.274628e+03,5.845672e+03
2.286199e+03,5.752938e+03
2.297770e+03,5.743971e+03
2.309341e+03,5.690273e+03
2.320912e+03,5.632640e+03
2.332482e+03,5.598737e+03
2.344053e+03,5.514252e+03
2.355624e+03,5.487869e+03
2.367195e+03,5.424112e+03
2.378766e+03,5.360566e+03
2.390336e+03,5.334093e+03
2.401907e+03,5.233147e+03
2.413478e+03,5.195862e+03
2.425049e+03,5.160203e+03
2.436620e+03,5.118109e+03
2.448190e+03,5.037540e+03
2.459761e+03,4.987453e+03
2.471332e+03,4.929188e+03
2.482903e+03,4.921931e+03
2.494474e+03,4.855670e+03
2.506044e+03,4.825105e+03
2.517615e+03,4.799944e+03
2.529186e+03,4.740688e+03
2.540757e+03,4.676874e+03
2.552328e+03,4.625844e+03
2.563898e+03,4.601844e+03
2.575469e+03,4.531678e+03
2.587040e+03,4.491888e+03
2.598611e+03,4.482928e+03
2.610182e+03,4.463250e+03
2.621752e+03,4.353085e+03
2.633323e+03,4.326855e+03
2.644894e+03,4.313523e+03
2.656465e+03,4.274699e+03
2.668036e+03,4.204776e+03
2.679606e+03,4.199734e+03
2.691177e+03,4.149657e+03
2.702748e+03,4.113244e+03
2.714319e+03,4.062517e+03
2.725890e+03,4.025431e+03
2.737460e+03,4.011145e+03
2.749031e+03,3.979378e+03
2.760602e+03,3.951152e+03
2.772173e+03,3.929294e+03
2.783744e+03,3.861855e+03
2.795314e+03,3.896007e+03
2.806885e+03,3.820282e+03
2.818456e+03,3.782708e+03
2.830027e+03,3.768696e+03
2.841598e+03,3.758264e+03
2.853168e+03,3.711279e+03
2.864739e+03,3.691172e+03
2.876310e+03,3.726292e+03
2.887881e+03,3.651487e+03
2.899452e+03,3.598375e+03
2.911022e+03,3.615513e+03
2.922593e+03,3.554676e+03
2.934164e+03,3.495118e+03
2.945735e+03,3.486079e+03
2.957306e+03,3.462613e+03
2.968876e+03,3.447243e+03
2.980447e+03,3.398663e+03
2.992018e+03,3.351745e+03
3.003589e+03,3.337946e+03
3.015160e+03,3.303478e+03
3.026730e+03,3.300682e+03
3.038301e+03,3.282758e+03
3.049872e+03,3.244322e+03
3.061443e+03,3.263057e+03
3.073014e+03,3.229092e+03
3.084584e+03,3.228134e+03
3.096155e+03,3.206381e+03
3.107726e+03,3.176485e+03
3.119297e+03,3.140094e+03
3.130868e+03,3.071467e+03
3.142438e+03,3.104363e+03
3.154009e+03,3.215453e+03
3.165580e+03,3.149801e+03
3.177151e+03,3.115443e+03
3.188722e+03,3.190972e+03
3.200292e+03,3.146634e+03
3.211863e+03,0.000000e+00
3.223434e+03,0.000000e+00
3.235005e+03,0.000000e+00
3.246576e+03,0.000000e+00
3.258146e+03,0.000000e+00
3.269717e+03,0.000000e+00
3.281288e+03,0.000000e+00
3.292859e+03,0.000000e+00
3.304430e+03,0.000000e+00
3.316000e+03,0.000000e+00
3.327571e+03,0.000000e+00
3.339142e+03,0.000000e+00
3.350713e+03,0.000000e+00
3.362284e+03,0.000000e+00
3.373854e+03,0.000000e+00
3.385425e+03,0.000000e+00
3.396996e+03,0.000000e+00
3.408567e+03,0.000000e+00
3.420138e+03,0.000000e+00
3.431708e+03,0.000000e+00
3.443279e+03,0.000000e+00
3.454850e+03,0.000000e+00
3.466421e+03,0.000000e+00
3.477992e+03,0.000000e+00
3.489563e+03,0.000000e+00
3.500169e+03,0.000000e+00