Folder: Taff_Bargoed_microplastics_data/RAMAN_data/13112023_r1

Note: README.md
# Taff_Bargoed_microplastics_data

File: black fibre1.CSV
9.931763e+01,0.000000e+00
1.108884e+02,0.000000e+00
1.224592e+02,0.000000e+00
1.340300e+02,0.000000e+00
1.456008e+02,0.000000e+00
1.571716e+02,0.000000e+00
1.687424e+02,0.000000e+00
1.803132e+02,0.000000e+00
1.918840e+02,0.000000e+00
2.034548e+02,6.901549e+03
2.150256e+02,6.868278e+03
2.265964e+02,6.829776e+03
2.381673e+02,6.784938e+03
2.497381e+02,6.735119e+03
2.613088e+02,6.710494e+03
2.728796e+02,6.707436e+03
2.844504e+02,6.700392e+03
2.960212e+02,6.670180e+03
3.075920e+02,6.607619e+03
3.191628e+02,6.579710e+03
3.307336e+02,6.530861e+03
3.423044e+02,6.489148e+03
3.538752e+02,6.406500e+03
3.654461e+02,6.361139e+03
3.770169e+02,6.329575e+03
3.885877e+02,6.233889e+03
4.001585e+02,6.157104e+03
4.117293e+02,6.115497e+03
4.233001e+02,6.051454e+03
4.348709e+02,5.956937e+03
4.464417e+02,5.874452e+03
4.580125e+02,5.801789e+03
4.695833e+02,5.739771e+03
4.811541e+02,5.704963e+03
4.927249e+02,5.622155e+03
5.042957e+02,5.578100e+03
5.158665e+02,5.517376e+03
5.274373e+02,5.435674e+03
5.390081e+02,5.360536e+03
5.505789e+02,5.316368e+03
5.621497e+02,5.256464e+03
5.737205e+02,5.172828e+03
5.852913e+02,5.106640e+03
5.968621e+02,5.068226e+03
6.084329e+02,5.009884e+03
6.200037e+02,4.935427e+03
6.315745e+02,4.878541e+03
6.431453e+02,4.817437e+03
6.547161e+02,4.774521e+03
6.662869e+02,4.743507e+03
6.778577e+02,4.651403e+03
6.894285e+02,4.613469e+03
7.009993e+02,4.591323e+03
7.125701e+02,4.524916e+03
7.241409e+02,4.462244e+03
7.357117e+02,4.431762e+03
7.472825e+02,4.401181e+03
7.588533e+02,4.317164e+03
7.704241e+02,4.275874e+03
7.819949e+02,4.227650e+03
7.935657e+02,4.203946e+03
8.051365e+02,4.165854e+03
8.167073e+02,4.129276e+03
8.282781e+02,4.082704e+03
8.398489e+02,4.078821e+03
8.514197e+02,4.052707e+03
8.629905e+02,4.013302e+03
8.745613e+02,3.970965e+03
8.861321e+02,3.967218e+03
8.977029e+02,3.925721e+03
9.092737e+02,3.867068e+03
9.208445e+02,3.851968e+03
9.324153e+02,3.848032e+03
9.439861e+02,3.798418e+03
9.555569e+02,3.777072e+03
9.671277e+02,3.763621e+03
9.786985e+02,3.763865e+03
9.902693e+02,3.733725e+03
1.001840e+03,3.731950e+03
1.013411e+03,3.723958e+03
1.024982e+03,3.692865e+03
1.036552e+03,3.703767e+03
1.048123e+03,3.669814e+03
1.059694e+03,3.680941e+03
1.071265e+03,3.725055e+03
1.082836e+03,3.706227e+03
1.094406e+03,3.695795e+03
1.105977e+03,3.653274e+03
1.117548e+03,3.687504e+03
1.129119e+03,3.658417e+03
1.140690e+03,3.692699e+03
1.152261e+03,3.726362e+03
1.163831e+03,3.764597e+03
1.175402e+03,3.737794e+03
1.186973e+03,3.635159e+03
1.198544e+03,3.665364e+03
1.210115e+03,3.642580e+03
1.221685e+03,3.637498e+03
1.233256e+03,3.590694e+03
1.244827e+03,3.594672e+03
1.256398e+03,3.574721e+03
1.267969e+03,3.599181e+03
1.279539e+03,3.617374e+03
1.291110e+03,3.605340e+03
1.302681e+03,3.620411e+03
1.314252e+03,3.661539e+03
1.325823e+03,3.714621e+03
1.337393e+03,3.669337e+03
1.348964e+03,3.602823e+03
1.360535e+03,3.571023e+03
1.372106e+03,3.564151e+03
1.383677e+03,3.561030e+03
1.395247e+03,3.521586e+03
1.406818e+03,3.498078e+03
1.418389e+03,3.473066e+03
1.429960e+03,3.486874e+03
1.441531e+03,3.479227e+03
1.453101e+03,3.446461e+03
1.464672e+03,3.435338e+03
1.476243e+03,3.439997e+03
1.487814e+03,3.392372e+03
1.499385e+03,3.371622e+03
1.510955e+03,3.341074e+03
1.522526e+03,3.334378e+03
1.534097e+03,3.302215e+03
1.545668e+03,3.267801e+03
1.557239e+03,3.289989e+03
1.568809e+03,3.246573e+03
1.580380e+03,3.252228e+03
1.591951e+03,3.158692e+03
1.603522e+03,3.170816e+03
1.615093e+03,3.181346e+03
1.626663e+03,3.083684e+03
1.638234e+03,3.029202e+03
1.649805e+03,2.997688e+03
1.661376e+03,2.973922e+03
1.672947e+03,2.930615e+03
1.684517e+03,2.901914e+03
1.696088e+03,2.860460e+03
1.707659e+03,2.834803e+03
1.719230e+03,2.821644e+03
1.730801e+03,2.787517e+03
1.742371e+03,2.735796e+03
1.753942e+03,2.700090e+03
1.765513e+03,2.653665e+03
1.777084e+03,2.624940e+03
1.788655e+03,2.577699e+03
1.800225e+03,2.549150e+03
1.811796e+03,2.522110e+03
1.823367e+03,2.472073e+03
1.834938e+03,2.432908e+03
1.846509e+03,2.428745e+03
1.858079e+03,2.393272e+03
1.869650e+03,2.326092e+03
1.881221e+03,2.304171e+03
1.892792e+03,2.250896e+03
1.904363e+03,2.227599e+03
1.915933e+03,2.195708e+03
1.927504e+03,2.157709e+03
1.939075e+03,2.121220e+03
1.950646e+03,2.102017e+03
1.962217e+03,2.050472e+03
1.973787e+03,2.038817e+03
1.985358e+03,1.994085e+03
1.996929e+03,1.967586e+03
2.008500e+03,1.931310e+03
2.020071e+03,1.901703e+03
2.031641e+03,1.873746e+03
2.043212e+03,1.832733e+03
2.054783e+03,1.802918e+03
2.066354e+03,1.761144e+03
2.077925e+03,1.743078e+03
2.089496e+03,1.716570e+03
2.101066e+03,1.703302e+03
2.112637e+03,1.673721e+03
2.124208e+03,1.636930e+03
2.135779e+03,1.624534e+03
2.147350e+03,1.577305e+03
2.158920e+03,1.582588e+03
2.170491e+03,1.537059e+03
2.182062e+03,1.527942e+03
2.193633e+03,1.504016e+03
2.205204e+03,1.460163e+03
2.216774e+03,1.472338e+03
2.228345e+03,1.418636e+03
2.239916e+03,1.422993e+03
2.251487e+03,1.410032e+03
2.263058e+03,1.374592e+03
2.274628e+03,1.345966e+03
2.286199e+03,1.331982e+03
2.297770e+03,1.315718e+03
2.309341e+03,1.309785e+03
2.320912e+03,1.301428e+03
2.332482e+03,1.264316e+03
2.344053e+03,1.279486e+03
2.355624e+03,1.248126e+03
2.367195e+03,1.236342e+03
2.378766e+03,1.210654e+03
2.390336e+03,1.193067e+03
2.401907e+03,1.188489e+03
2.413478e+03,1.173565e+03
2.425049e+03,1.164979e+03
2.436620e+03,1.174571e+03
2.448190e+03,1.138477e+03
2.459761e+03,1.122268e+03
2.471332e+03,1.115050e+03
2.482903e+03,1.110486e+03
2.494474e+03,1.105445e+03
2.506044e+03,1.075043e+03
2.517615e+03,1.070610e+03
2.529186e+03,1.063362e+03
2.540757e+03,1.063985e+03
2.552328e+03,1.049250e+03
2.563898e+03,1.037318e+03
2.575469e+03,1.031223e+03
2.587040e+03,1.019453e+03
2.598611e+03,1.013269e+03
2.610182e+03,1.000856e+03
2.621752e+03,1.010637e+03
2.633323e+03,9.969557e+02
2.644894e+03,1.010068e+03
2.656465e+03,1.001562e+03
2.668036e+03,9.859244e+02
2.679606e+03,9.640242e+02
2.691177e+03,9.659709e+02
2.702748e+03,9.694908e+02
2.714319e+03,9.381422e+02
2.725890e+03,9.353885e+02
2.737460e+03,9.415234e+02
2.749031e+03,9.261949e+02
2.760602e+03,9.202601e+02
2.772173e+03,9.054400e+02
2.783744e+03,8.906154e+02
2.795314e+03,8.848817e+02
2.806885e+03,8.973051e+02
2.818456e+03,9.031647e+02
2.830027e+03,8.798400e+02
2.841598e+03,8.665405e+02
2.853168e+03,8.813391e+02
2.864739e+03,8.823490e+02
2.876310e+03,8.622586e+02
2.887881e+03,8.767169e+02
2.899452e+03,8.606390e+02
2.911022e+03,8.663715e+02
2.922593e+03,8.539092e+02
2.934164e+03,8.420219e+02
2.945735e+03,8.463031e+02
2.957306e+03,8.701244e+02
2.968876e+03,8.276984e+02
2.980447e+03,8.020830e+02
2.992018e+03,7.855766e+02
3.003589e+03,7.870505e+02
3.015160e+03,7.741071e+02
3.026730e+03,7.649553e+02
3.038301e+03,7.988525e+02
3.049872e+03,7.624702e+02
3.061443e+03,7.478814e+02
3.073014e+03,7.852016e+02
3.084584e+03,7.235116e+02
3.096155e+03,7.545507e+02
3.107726e+03,7.389785e+02
3.119297e+03,7.558321e+02
3.130868e+03,7.537744e+02
3.142438e+03,7.394659e+02
3.154009e+03,7.188261e+02
3.165580e+03,7.537480e+02
3.177151e+03,7.414980e+02
3.188722e+03,7.720915e+02
3.200292e+03,7.788405e+02
3.211863e+03,0.000000e+00
3.223434e+03,0.000000e+00
3.235005e+03,0.000000e+00
3.246576e+03,0.000000e+00
3.258146e+03,0.000000e+00
3.269717e+03,0.000000e+00
3.281288e+03,0.000000e+00
3.292859e+03,0.000000e+00
3.304430e+03,0.000000e+00
3.316000e+03,0.000000e+00
3.327571e+03,0.000000e+00
3.339142e+03,0.000000e+00
3.350713e+03,0.000000e+00
3.362284e+03,0.000000e+00
3.373854e+03,0.000000e+00
3.385425e+03,0.000000e+00
3.396996e+03,0.000000e+00
3.408567e+03,0.000000e+00
3.420138e+03,0.000000e+00
3.431708e+03,0.000000e+00
3.443279e+03,0.000000e+00
3.454850e+03,0.000000e+00
3.466421e+03,0.000000e+00
3.477992e+03,0.000000e+00
3.489563e+03,0.000000e+00
3.500169e+03,0.000000e+00

File: black fibre2.CSV
9.931763e+01,0.000000e+00
1.108884e+02,0.000000e+00
1.224592e+02,0.000000e+00
1.340300e+02,0.000000e+00
1.456008e+02,0.000000e+00
1.571716e+02,0.000000e+00
1.687424e+02,0.000000e+00
1.803132e+02,0.000000e+00
1.918840e+02,0.000000e+00
2.034548e+02,4.570793e+03
2.150256e+02,4.607633e+03
2.265964e+02,4.652007e+03
2.381673e+02,4.708232e+03
2.497381e+02,4.790956e+03
2.613088e+02,4.787843e+03
2.728796e+02,4.816601e+03
2.844504e+02,4.842615e+03
2.960212e+02,4.875564e+03
3.075920e+02,4.898387e+03
3.191628e+02,4.922097e+03
3.307336e+02,4.941124e+03
3.423044e+02,4.985687e+03
3.538752e+02,4.991196e+03
3.654461e+02,5.017929e+03
3.770169e+02,5.055191e+03
3.885877e+02,5.049508e+03
4.001585e+02,5.071959e+03
4.117293e+02,5.095963e+03
4.233001e+02,5.106849e+03
4.348709e+02,5.146861e+03
4.464417e+02,5.136154e+03
4.580125e+02,5.172167e+03
4.695833e+02,5.167807e+03
4.811541e+02,5.157507e+03
4.927249e+02,5.175881e+03
5.042957e+02,5.205198e+03
5.158665e+02,5.236679e+03
5.274373e+02,5.227906e+03
5.390081e+02,5.282333e+03
5.505789e+02,5.268391e+03
5.621497e+02,5.237025e+03
5.737205e+02,5.204019e+03
5.852913e+02,5.217348e+03
5.968621e+02,5.233273e+03
6.084329e+02,5.233287e+03
6.200037e+02,5.236474e+03
6.315745e+02,5.211236e+03
6.431453e+02,5.202202e+03
6.547161e+02,5.193519e+03
6.662869e+02,5.177148e+03
6.778577e+02,5.179950e+03
6.894285e+02,5.178609e+03
7.009993e+02,5.179208e+03
7.125701e+02,5.166302e+03
7.241409e+02,5.159466e+03
7.357117e+02,5.141569e+03
7.472825e+02,5.167781e+03
7.588533e+02,5.167178e+03
7.704241e+02,5.095400e+03
7.819949e+02,5.093735e+03
7.935657e+02,5.107960e+03
8.051365e+02,5.077866e+03
8.167073e+02,5.067548e+03
8.282781e+02,5.064549e+03
8.398489e+02,5.041352e+03
8.514197e+02,5.031646e+03
8.629905e+02,5.010301e+03
8.745613e+02,4.994571e+03
8.861321e+02,4.991694e+03
8.977029e+02,4.939271e+03
9.092737e+02,4.945177e+03
9.208445e+02,4.915354e+03
9.324153e+02,4.902959e+03
9.439861e+02,4.906803e+03
9.555569e+02,4.878331e+03
9.671277e+02,4.890532e+03
9.786985e+02,4.854961e+03
9.902693e+02,4.828637e+03
1.001840e+03,4.791213e+03
1.013411e+03,4.786039e+03
1.024982e+03,4.781673e+03
1.036552e+03,4.771980e+03
1.048123e+03,4.745148e+03
1.059694e+03,4.704945e+03
1.071265e+03,4.725557e+03
1.082836e+03,4.687435e+03
1.094406e+03,4.702643e+03
1.105977e+03,4.674564e+03
1.117548e+03,4.641052e+03
1.129119e+03,4.602944e+03
1.140690e+03,4.578233e+03
1.152261e+03,4.575252e+03
1.163831e+03,4.554431e+03
1.175402e+03,4.526861e+03
1.186973e+03,4.496385e+03
1.198544e+03,4.501042e+03
1.210115e+03,4.497859e+03
1.221685e+03,4.464320e+03
1.233256e+03,4.444271e+03
1.244827e+03,4.406703e+03
1.256398e+03,4.425536e+03
1.267969e+03,4.357817e+03
1.279539e+03,4.367460e+03
1.291110e+03,4.361249e+03
1.302681e+03,4.341302e+03
1.314252e+03,4.329075e+03
1.325823e+03,4.309273e+03
1.337393e+03,4.284956e+03
1.348964e+03,4.266018e+03
1.360535e+03,4.255675e+03
1.372106e+03,4.237085e+03
1.383677e+03,4.218642e+03
1.395247e+03,4.199289e+03
1.406818e+03,4.178764e+03
1.418389e+03,4.157395e+03
1.429960e+03,4.143337e+03
1.441531e+03,4.121322e+03
1.453101e+03,4.088332e+03
1.464672e+03,4.099434e+03
1.476243e+03,4.073687e+03
1.487814e+03,4.041234e+03
1.499385e+03,4.013324e+03
1.510955e+03,3.996370e+03
1.522526e+03,3.971692e+03
1.534097e+03,3.964437e+03
1.545668e+03,3.940230e+03
1.557239e+03,3.959796e+03
1.568809e+03,4.054323e+03
1.580380e+03,4.018560e+03
1.591951e+03,3.934479e+03
1.603522e+03,3.891927e+03
1.615093e+03,3.864813e+03
1.626663e+03,3.848956e+03
1.638234e+03,3.798306e+03
1.649805e+03,3.775039e+03
1.661376e+03,3.762346e+03
1.672947e+03,3.768129e+03
1.684517e+03,3.746293e+03
1.696088e+03,3.713608e+03
1.707659e+03,3.717234e+03
1.719230e+03,3.686239e+03
1.730801e+03,3.654147e+03
1.742371e+03,3.653119e+03
1.753942e+03,3.659358e+03
1.765513e+03,3.624048e+03
1.777084e+03,3.609540e+03
1.788655e+03,3.582179e+03
1.800225e+03,3.582426e+03
1.811796e+03,3.555234e+03
1.823367e+03,3.520366e+03
1.834938e+03,3.495151e+03
1.846509e+03,3.524182e+03
1.858079e+03,3.473297e+03
1.869650e+03,3.468326e+03
1.881221e+03,3.422947e+03
1.892792e+03,3.419911e+03
1.904363e+03,3.404427e+03
1.915933e+03,3.371257e+03
1.927504e+03,3.359099e+03
1.939075e+03,3.328088e+03
1.950646e+03,3.294926e+03
1.962217e+03,3.278159e+03
1.973787e+03,3.270876e+03
1.985358e+03,3.236093e+03
1.996929e+03,3.186095e+03
2.008500e+03,3.204318e+03
2.020071e+03,3.192140e+03
2.031641e+03,3.165276e+03
2.043212e+03,3.155599e+03
2.054783e+03,3.086816e+03
2.066354e+03,3.098810e+03
2.077925e+03,3.054859e+03
2.089496e+03,3.035865e+03
2.101066e+03,3.016895e+03
2.112637e+03,3.001040e+03
2.124208e+03,2.987132e+03
2.135779e+03,2.925077e+03
2.147350e+03,2.906309e+03
2.158920e+03,2.883221e+03
2.170491e+03,2.866647e+03
2.182062e+03,2.819697e+03
2.193633e+03,2.797922e+03
2.205204e+03,2.787847e+03
2.216774e+03,2.753874e+03
2.228345e+03,2.715789e+03
2.239916e+03,2.677813e+03
2.251487e+03,2.704571e+03
2.263058e+03,2.642921e+03
2.274628e+03,2.618566e+03
2.286199e+03,2.605268e+03
2.297770e+03,2.568515e+03
2.309341e+03,2.530796e+03
2.320912e+03,2.530550e+03
2.332482e+03,2.472942e+03
2.344053e+03,2.457884e+03
2.355624e+03,2.425666e+03
2.367195e+03,2.399754e+03
2.378766e+03,2.378824e+03
2.390336e+03,2.354136e+03
2.401907e+03,2.328567e+03
2.413478e+03,2.302496e+03
2.425049e+03,2.267065e+03
2.436620e+03,2.267147e+03
2.448190e+03,2.238567e+03
2.459761e+03,2.186640e+03
2.471332e+03,2.192147e+03
2.482903e+03,2.162601e+03
2.494474e+03,2.160726e+03
2.506044e+03,2.135573e+03
2.517615e+03,2.106184e+03
2.529186e+03,2.092462e+03
2.540757e+03,2.050999e+03
2.552328e+03,2.067070e+03
2.563898e+03,2.045120e+03
2.575469e+03,2.034349e+03
2.587040e+03,1.985790e+03
2.598611e+03,1.970740e+03
2.610182e+03,1.953431e+03
2.621752e+03,1.916277e+03
2.633323e+03,1.913211e+03
2.644894e+03,1.920530e+03
2.656465e+03,1.887380e+03
2.668036e+03,1.858986e+03
2.679606e+03,1.866852e+03
2.691177e+03,1.830072e+03
2.702748e+03,1.853467e+03
2.714319e+03,1.791509e+03
2.725890e+03,1.816289e+03
2.737460e+03,1.782299e+03
2.749031e+03,1.787740e+03
2.760602e+03,1.763751e+03
2.772173e+03,1.720968e+03
2.783744e+03,1.714009e+03
2.795314e+03,1.755816e+03
2.806885e+03,1.710485e+03
2.818456e+03,1.705384e+03
2.830027e+03,1.692168e+03
2.841598e+03,1.689387e+03
2.853168e+03,1.651265e+03
2.864739e+03,1.689293e+03
2.876310e+03,1.663428e+03
2.887881e+03,1.650011e+03
2.899452e+03,1.627738e+03
2.911022e+03,1.618555e+03
2.922593e+03,1.602830e+03
2.934164e+03,1.581502e+03
2.945735e+03,1.543004e+03
2.957306e+03,1.587407e+03
2.968876e+03,1.511691e+03
2.980447e+03,1.547880e+03
2.992018e+03,1.484739e+03
3.003589e+03,1.481326e+03
3.015160e+03,1.479621e+03
3.026730e+03,1.459516e+03
3.038301e+03,1.488790e+03
3.049872e+03,1.440187e+03
3.061443e+03,1.463542e+03
3.073014e+03,1.438814e+03
3.084584e+03,1.412385e+03
3.096155e+03,1.420707e+03
3.107726e+03,1.404312e+03
3.119297e+03,1.412080e+03
3.130868e+03,1.418596e+03
3.142438e+03,1.444883e+03
3.154009e+03,1.421766e+03
3.165580e+03,1.418565e+03
3.177151e+03,1.438718e+03
3.188722e+03,1.381199e+03
3.200292e+03,1.410458e+03
3.211863e+03,0.000000e+00
3.223434e+03,0.000000e+00
3.235005e+03,0.000000e+00
3.246576e+03,0.000000e+00
3.258146e+03,0.000000e+00
3.269717e+03,0.000000e+00
3.281288e+03,0.000000e+00
3.292859e+03,0.000000e+00
3.304430e+03,0.000000e+00
3.316000e+03,0.000000e+00
3.327571e+03,0.000000e+00
3.339142e+03,0.000000e+00
3.350713e+03,0.000000e+00
3.362284e+03,0.000000e+00
3.373854e+03,0.000000e+00
3.385425e+03,0.000000e+00
3.396996e+03,0.000000e+00
3.408567e+03,0.000000e+00
3.420138e+03,0.000000e+00
3.431708e+03,0.000000e+00
3.443279e+03,0.000000e+00
3.454850e+03,0.000000e+00
3.466421e+03,0.000000e+00
3.477992e+03,0.000000e+00
3.489563e+03,0.000000e+00
3.500169e+03,0.000000e+00

File: black fibre3.CSV
9.931763e+01,0.000000e+00
1.108884e+02,0.000000e+00
1.224592e+02,0.000000e+00
1.340300e+02,0.000000e+00
1.456008e+02,0.000000e+00
1.571716e+02,0.000000e+00
1.687424e+02,0.000000e+00
1.803132e+02,0.000000e+00
1.918840e+02,0.000000e+00
2.034548e+02,3.652093e+03
2.150256e+02,3.647241e+03
2.265964e+02,3.657905e+03
2.381673e+02,3.662996e+03
2.497381e+02,3.668173e+03
2.613088e+02,3.648095e+03
2.728796e+02,3.645760e+03
2.844504e+02,3.663947e+03
2.960212e+02,3.656658e+03
3.075920e+02,3.642488e+03
3.191628e+02,3.657814e+03
3.307336e+02,3.636224e+03
3.423044e+02,3.642554e+03
3.538752e+02,3.623820e+03
3.654461e+02,3.635083e+03
3.770169e+02,3.644735e+03
3.885877e+02,3.609336e+03
4.001585e+02,3.606310e+03
4.117293e+02,3.572518e+03
4.233001e+02,3.563564e+03
4.348709e+02,3.575460e+03
4.464417e+02,3.549335e+03
4.580125e+02,3.540505e+03
4.695833e+02,3.526231e+03
4.811541e+02,3.515526e+03
4.927249e+02,3.499095e+03
5.042957e+02,3.488832e+03
5.158665e+02,3.482289e+03
5.274373e+02,3.449872e+03
5.390081e+02,3.446421e+03
5.505789e+02,3.414379e+03
5.621497e+02,3.424875e+03
5.737205e+02,3.388681e+03
5.852913e+02,3.376708e+03
5.968621e+02,3.351743e+03
6.084329e+02,3.340665e+03
6.200037e+02,3.322919e+03
6.315745e+02,3.309944e+03
6.431453e+02,3.291544e+03
6.547161e+02,3.276250e+03
6.662869e+02,3.250262e+03
6.778577e+02,3.232325e+03
6.894285e+02,3.238187e+03
7.009993e+02,3.209978e+03
7.125701e+02,3.186894e+03
7.241409e+02,3.176668e+03
7.357117e+02,3.143489e+03
7.472825e+02,3.135419e+03
7.588533e+02,3.115259e+03
7.704241e+02,3.084405e+03
7.819949e+02,3.076875e+03
7.935657e+02,3.071954e+03
8.051365e+02,3.051219e+03
8.167073e+02,3.013300e+03
8.282781e+02,3.010977e+03
8.398489e+02,3.006922e+03
8.514197e+02,2.963693e+03
8.629905e+02,2.962083e+03
8.745613e+02,2.920817e+03
8.861321e+02,2.934923e+03
8.977029e+02,2.910216e+03
9.092737e+02,2.876330e+03
9.208445e+02,2.860888e+03
9.324153e+02,2.855583e+03
9.439861e+02,2.815940e+03
9.555569e+02,2.791960e+03
9.671277e+02,2.797555e+03
9.786985e+02,2.775425e+03
9.902693e+02,2.766995e+03
1.001840e+03,2.740386e+03
1.013411e+03,2.729383e+03
1.024982e+03,2.724084e+03
1.036552e+03,2.716917e+03
1.048123e+03,2.709509e+03
1.059694e+03,2.684196e+03
1.071265e+03,2.656016e+03
1.082836e+03,2.668163e+03
1.094406e+03,2.680052e+03
1.105977e+03,2.627833e+03
1.117548e+03,2.640712e+03
1.129119e+03,2.605768e+03
1.140690e+03,2.569415e+03
1.152261e+03,2.577885e+03
1.163831e+03,2.558317e+03
1.175402e+03,2.544327e+03
1.186973e+03,2.514457e+03
1.198544e+03,2.516132e+03
1.210115e+03,2.508920e+03
1.221685e+03,2.502676e+03
1.233256e+03,2.491173e+03
1.244827e+03,2.497242e+03
1.256398e+03,2.493976e+03
1.267969e+03,2.474431e+03
1.279539e+03,2.450310e+03
1.291110e+03,2.457048e+03
1.302681e+03,2.418917e+03
1.314252e+03,2.418924e+03
1.325823e+03,2.410531e+03
1.337393e+03,2.405161e+03
1.348964e+03,2.367852e+03
1.360535e+03,2.373290e+03
1.372106e+03,2.364354e+03
1.383677e+03,2.352958e+03
1.395247e+03,2.307235e+03
1.406818e+03,2.312838e+03
1.418389e+03,2.303046e+03
1.429960e+03,2.289889e+03
1.441531e+03,2.276237e+03
1.453101e+03,2.251820e+03
1.464672e+03,2.249307e+03
1.476243e+03,2.233265e+03
1.487814e+03,2.220735e+03
1.499385e+03,2.199790e+03
1.510955e+03,2.199203e+03
1.522526e+03,2.199932e+03
1.534097e+03,2.187736e+03
1.545668e+03,2.159487e+03
1.557239e+03,2.154359e+03
1.568809e+03,2.147157e+03
1.580380e+03,2.137885e+03
1.591951e+03,2.115849e+03
1.603522e+03,2.122504e+03
1.615093e+03,2.084668e+03
1.626663e+03,2.063080e+03
1.638234e+03,2.047649e+03
1.649805e+03,2.026309e+03
1.661376e+03,2.010401e+03
1.672947e+03,2.019842e+03
1.684517e+03,1.995601e+03
1.696088e+03,1.965929e+03
1.707659e+03,1.944910e+03
1.719230e+03,1.942989e+03
1.730801e+03,1.921860e+03
1.742371e+03,1.933792e+03
1.753942e+03,1.906107e+03
1.765513e+03,1.872802e+03
1.777084e+03,1.883162e+03
1.788655e+03,1.867837e+03
1.800225e+03,1.835397e+03
1.811796e+03,1.819406e+03
1.823367e+03,1.807897e+03
1.834938e+03,1.797628e+03
1.846509e+03,1.775072e+03
1.858079e+03,1.773054e+03
1.869650e+03,1.729868e+03
1.881221e+03,1.723937e+03
1.892792e+03,1.728161e+03
1.904363e+03,1.722761e+03
1.915933e+03,1.674739e+03
1.927504e+03,1.680316e+03
1.939075e+03,1.658822e+03
1.950646e+03,1.629829e+03
1.962217e+03,1.635913e+03
1.973787e+03,1.605752e+03
1.985358e+03,1.605459e+03
1.996929e+03,1.583679e+03
2.008500e+03,1.562160e+03
2.020071e+03,1.550435e+03
2.031641e+03,1.530314e+03
2.043212e+03,1.516337e+03
2.054783e+03,1.491965e+03
2.066354e+03,1.472596e+03
2.077925e+03,1.468442e+03
2.089496e+03,1.440750e+03
2.101066e+03,1.424612e+03
2.112637e+03,1.416443e+03
2.124208e+03,1.411313e+03
2.135779e+03,1.407829e+03
2.147350e+03,1.361710e+03
2.158920e+03,1.348664e+03
2.170491e+03,1.332620e+03
2.182062e+03,1.325705e+03
2.193633e+03,1.303744e+03
2.205204e+03,1.309158e+03
2.216774e+03,1.294405e+03
2.228345e+03,1.273713e+03
2.239916e+03,1.256706e+03
2.251487e+03,1.244767e+03
2.263058e+03,1.228119e+03
2.274628e+03,1.209189e+03
2.286199e+03,1.190215e+03
2.297770e+03,1.189871e+03
2.309341e+03,1.175188e+03
2.320912e+03,1.155602e+03
2.332482e+03,1.151964e+03
2.344053e+03,1.128586e+03
2.355624e+03,1.109716e+03
2.367195e+03,1.108401e+03
2.378766e+03,1.095541e+03
2.390336e+03,1.091794e+03
2.401907e+03,1.077081e+03
2.413478e+03,1.049967e+03
2.425049e+03,1.048442e+03
2.436620e+03,1.037795e+03
2.448190e+03,1.019363e+03
2.459761e+03,9.977408e+02
2.471332e+03,1.002613e+03
2.482903e+03,9.967175e+02
2.494474e+03,9.833865e+02
2.506044e+03,9.770561e+02
2.517615e+03,9.601280e+02
2.529186e+03,9.666057e+02
2.540757e+03,9.412144e+02
2.552328e+03,9.431039e+02
2.563898e+03,9.430546e+02
2.575469e+03,9.264471e+02
2.587040e+03,9.123444e+02
2.598611e+03,9.096852e+02
2.610182e+03,8.943646e+02
2.621752e+03,8.751825e+02
2.633323e+03,8.714432e+02
2.644894e+03,8.669987e+02
2.656465e+03,8.775951e+02
2.668036e+03,8.568292e+02
2.679606e+03,8.501011e+02
2.691177e+03,8.397234e+02
2.702748e+03,8.380016e+02
2.714319e+03,8.310618e+02
2.725890e+03,8.314259e+02
2.737460e+03,8.172226e+02
2.749031e+03,8.027750e+02
2.760602e+03,7.923338e+02
2.772173e+03,7.944554e+02
2.783744e+03,7.795514e+02
2.795314e+03,8.000803e+02
2.806885e+03,7.856779e+02
2.818456e+03,7.661863e+02
2.830027e+03,7.626005e+02
2.841598e+03,7.694461e+02
2.853168e+03,7.799088e+02
2.864739e+03,7.794138e+02
2.876310e+03,7.900280e+02
2.887881e+03,7.961051e+02
2.899452e+03,7.865258e+02
2.911022e+03,7.892719e+02
2.922593e+03,7.442712e+02
2.934164e+03,7.325495e+02
2.945735e+03,7.457703e+02
2.957306e+03,7.888912e+02
2.968876e+03,7.359968e+02
2.980447e+03,6.879847e+02
2.992018e+03,6.960399e+02
3.003589e+03,6.653441e+02
3.015160e+03,6.683964e+02
3.026730e+03,6.740790e+02
3.038301e+03,7.003694e+02
3.049872e+03,6.719353e+02
3.061443e+03,6.704736e+02
3.073014e+03,6.843668e+02
3.084584e+03,6.646885e+02
3.096155e+03,6.653332e+02
3.107726e+03,6.567665e+02
3.119297e+03,6.507900e+02
3.130868e+03,6.562133e+02
3.142438e+03,6.589293e+02
3.154009e+03,6.542161e+02
3.165580e+03,6.682653e+02
3.177151e+03,6.720082e+02
3.188722e+03,6.585251e+02
3.200292e+03,6.911820e+02
3.211863e+03,0.000000e+00
3.223434e+03,0.000000e+00
3.235005e+03,0.000000e+00
3.246576e+03,0.000000e+00
3.258146e+03,0.000000e+00
3.269717e+03,0.000000e+00
3.281288e+03,0.000000e+00
3.292859e+03,0.000000e+00
3.304430e+03,0.000000e+00
3.316000e+03,0.000000e+00
3.327571e+03,0.000000e+00
3.339142e+03,0.000000e+00
3.350713e+03,0.000000e+00
3.362284e+03,0.000000e+00
3.373854e+03,0.000000e+00
3.385425e+03,0.000000e+00
3.396996e+03,0.000000e+00
3.408567e+03,0.000000e+00
3.420138e+03,0.000000e+00
3.431708e+03,0.000000e+00
3.443279e+03,0.000000e+00
3.454850e+03,0.000000e+00
3.466421e+03,0.000000e+00
3.477992e+03,0.000000e+00
3.489563e+03,0.000000e+00
3.500169e+03,0.000000e+00