Folder: Taff_Bargoed_microplastics_data/RAMAN_data/13112023_r1 (part 6)

File: red fibre3.CSV
9.931763e+01,0.000000e+00
1.108884e+02,0.000000e+00
1.224592e+02,0.000000e+00
1.340300e+02,0.000000e+00
1.456008e+02,0.000000e+00
1.571716e+02,0.000000e+00
1.687424e+02,0.000000e+00
1.803132e+02,0.000000e+00
1.918840e+02,0.000000e+00
2.034548e+02,7.339019e+03
2.150256e+02,7.382544e+03
2.265964e+02,7.404124e+03
2.381673e+02,7.475529e+03
2.497381e+02,7.511201e+03
2.613088e+02,7.543571e+03
2.728796e+02,7.600930e+03
2.844504e+02,7.653750e+03
2.960212e+02,7.689245e+03
3.075920e+02,7.713623e+03
3.191628e+02,7.752224e+03
3.307336e+02,7.779671e+03
3.423044e+02,7.806178e+03
3.538752e+02,7.809498e+03
3.654461e+02,7.815388e+03
3.770169e+02,7.848148e+03
3.885877e+02,7.846595e+03
4.001585e+02,7.852151e+03
4.117293e+02,7.836366e+03
4.233001e+02,7.846137e+03
4.348709e+02,7.869925e+03
4.464417e+02,7.856663e+03
4.580125e+02,7.846802e+03
4.695833e+02,7.853269e+03
4.811541e+02,7.836018e+03
4.927249e+02,7.827274e+03
5.042957e+02,7.815821e+03
5.158665e+02,7.822838e+03
5.274373e+02,7.821921e+03
5.390081e+02,7.778858e+03
5.505789e+02,7.777206e+03
5.621497e+02,7.767531e+03
5.737205e+02,7.737727e+03
5.852913e+02,7.729050e+03
5.968621e+02,7.741047e+03
6.084329e+02,7.702391e+03
6.200037e+02,7.658992e+03
6.315745e+02,7.673560e+03
6.431453e+02,7.620859e+03
6.547161e+02,7.617378e+03
6.662869e+02,7.557922e+03
6.778577e+02,7.523872e+03
6.894285e+02,7.536394e+03
7.009993e+02,7.464791e+03
7.125701e+02,7.451713e+03
7.241409e+02,7.442972e+03
7.357117e+02,7.389916e+03
7.472825e+02,7.375192e+03
7.588533e+02,7.360558e+03
7.704241e+02,7.284229e+03
7.819949e+02,7.237581e+03
7.935657e+02,7.250585e+03
8.051365e+02,7.189595e+03
8.167073e+02,7.158247e+03
8.282781e+02,7.132704e+03
8.398489e+02,7.112725e+03
8.514197e+02,7.057107e+03
8.629905e+02,7.011439e+03
8.745613e+02,6.996445e+03
8.861321e+02,6.960723e+03
8.977029e+02,6.931268e+03
9.092737e+02,6.871002e+03
9.208445e+02,6.847583e+03
9.324153e+02,6.783740e+03
9.439861e+02,6.773627e+03
9.555569e+02,6.696196e+03
9.671277e+02,6.680506e+03
9.786985e+02,6.670545e+03
9.902693e+02,6.607362e+03
1.001840e+03,6.578896e+03
1.013411e+03,6.548239e+03
1.024982e+03,6.534045e+03
1.036552e+03,6.489733e+03
1.048123e+03,6.463113e+03
1.059694e+03,6.406655e+03
1.071265e+03,6.408901e+03
1.082836e+03,6.378253e+03
1.094406e+03,6.349273e+03
1.105977e+03,6.301186e+03
1.117548e+03,6.309498e+03
1.129119e+03,6.240523e+03
1.140690e+03,6.209647e+03
1.152261e+03,6.197982e+03
1.163831e+03,6.142935e+03
1.175402e+03,6.081777e+03
1.186973e+03,6.066981e+03
1.198544e+03,6.047504e+03
1.210115e+03,6.034274e+03
1.221685e+03,6.002510e+03
1.233256e+03,5.959524e+03
1.244827e+03,5.922394e+03
1.256398e+03,5.920470e+03
1.267969e+03,5.882639e+03
1.279539e+03,5.870325e+03
1.291110e+03,5.841787e+03
1.302681e+03,5.831390e+03
1.314252e+03,5.770517e+03
1.325823e+03,5.753292e+03
1.337393e+03,5.754011e+03
1.348964e+03,5.726417e+03
1.360535e+03,5.672852e+03
1.372106e+03,5.662500e+03
1.383677e+03,5.638962e+03
1.395247e+03,5.582053e+03
1.406818e+03,5.550650e+03
1.418389e+03,5.536573e+03
1.429960e+03,5.516608e+03
1.441531e+03,5.492901e+03
1.453101e+03,5.427753e+03
1.464672e+03,5.419811e+03
1.476243e+03,5.411675e+03
1.487814e+03,5.384976e+03
1.499385e+03,5.376195e+03
1.510955e+03,5.335669e+03
1.522526e+03,5.300839e+03
1.534097e+03,5.279302e+03
1.545668e+03,5.223408e+03
1.557239e+03,5.232037e+03
1.568809e+03,5.210470e+03
1.580380e+03,5.156594e+03
1.591951e+03,5.136850e+03
1.603522e+03,5.136458e+03
1.615093e+03,5.073672e+03
1.626663e+03,5.043858e+03
1.638234e+03,4.984321e+03
1.649805e+03,4.926676e+03
1.661376e+03,4.907541e+03
1.672947e+03,4.865746e+03
1.684517e+03,4.854939e+03
1.696088e+03,4.823334e+03
1.707659e+03,4.774311e+03
1.719230e+03,4.755772e+03
1.730801e+03,4.716847e+03
1.742371e+03,4.702000e+03
1.753942e+03,4.664064e+03
1.765513e+03,4.620703e+03
1.777084e+03,4.565587e+03
1.788655e+03,4.560007e+03
1.800225e+03,4.507928e+03
1.811796e+03,4.463718e+03
1.823367e+03,4.440868e+03
1.834938e+03,4.413416e+03
1.846509e+03,4.353985e+03
1.858079e+03,4.328464e+03
1.869650e+03,4.289553e+03
1.881221e+03,4.249010e+03
1.892792e+03,4.224427e+03
1.904363e+03,4.185013e+03
1.915933e+03,4.136490e+03
1.927504e+03,4.099283e+03
1.939075e+03,4.055381e+03
1.950646e+03,4.008244e+03
1.962217e+03,3.976342e+03
1.973787e+03,3.933798e+03
1.985358e+03,3.901672e+03
1.996929e+03,3.881271e+03
2.008500e+03,3.829916e+03
2.020071e+03,3.771682e+03
2.031641e+03,3.782048e+03
2.043212e+03,3.706096e+03
2.054783e+03,3.660363e+03
2.066354e+03,3.641907e+03
2.077925e+03,3.619028e+03
2.089496e+03,3.584558e+03
2.101066e+03,3.548724e+03
2.112637e+03,3.476116e+03
2.124208e+03,3.450032e+03
2.135779e+03,3.429633e+03
2.147350e+03,3.365315e+03
2.158920e+03,3.325633e+03
2.170491e+03,3.304469e+03
2.182062e+03,3.253292e+03
2.193633e+03,3.235526e+03
2.205204e+03,3.193898e+03
2.216774e+03,3.172965e+03
2.228345e+03,3.120039e+03
2.239916e+03,3.055203e+03
2.251487e+03,3.058025e+03
2.263058e+03,3.027251e+03
2.274628e+03,2.994314e+03
2.286199e+03,2.918873e+03
2.297770e+03,2.928352e+03
2.309341e+03,2.853633e+03
2.320912e+03,2.861749e+03
2.332482e+03,2.823927e+03
2.344053e+03,2.794831e+03
2.355624e+03,2.736382e+03
2.367195e+03,2.727700e+03
2.378766e+03,2.691234e+03
2.390336e+03,2.678531e+03
2.401907e+03,2.599103e+03
2.413478e+03,2.584592e+03
2.425049e+03,2.571109e+03
2.436620e+03,2.540485e+03
2.448190e+03,2.515443e+03
2.459761e+03,2.464589e+03
2.471332e+03,2.471539e+03
2.482903e+03,2.457205e+03
2.494474e+03,2.411267e+03
2.506044e+03,2.398937e+03
2.517615e+03,2.371768e+03
2.529186e+03,2.346497e+03
2.540757e+03,2.334105e+03
2.552328e+03,2.296784e+03
2.563898e+03,2.276763e+03
2.575469e+03,2.269535e+03
2.587040e+03,2.237266e+03
2.598611e+03,2.201684e+03
2.610182e+03,2.175588e+03
2.621752e+03,2.134672e+03
2.633323e+03,2.136208e+03
2.644894e+03,2.133043e+03
2.656465e+03,2.102882e+03
2.668036e+03,2.088567e+03
2.679606e+03,2.079038e+03
2.691177e+03,2.053351e+03
2.702748e+03,2.043151e+03
2.714319e+03,1.995669e+03
2.725890e+03,1.992409e+03
2.737460e+03,1.967224e+03
2.749031e+03,1.940196e+03
2.760602e+03,1.944783e+03
2.772173e+03,1.925828e+03
2.783744e+03,1.903041e+03
2.795314e+03,1.902756e+03
2.806885e+03,1.869659e+03
2.818456e+03,1.848355e+03
2.830027e+03,1.830461e+03
2.841598e+03,1.801400e+03
2.853168e+03,1.827749e+03
2.864739e+03,1.837356e+03
2.876310e+03,1.814206e+03
2.887881e+03,1.803235e+03
2.899452e+03,1.766279e+03
2.911022e+03,1.761607e+03
2.922593e+03,1.754205e+03
2.934164e+03,1.734622e+03
2.945735e+03,1.718829e+03
2.957306e+03,1.747707e+03
2.968876e+03,1.676825e+03
2.980447e+03,1.670938e+03
2.992018e+03,1.666031e+03
3.003589e+03,1.631659e+03
3.015160e+03,1.653637e+03
3.026730e+03,1.622199e+03
3.038301e+03,1.595305e+03
3.049872e+03,1.598052e+03
3.061443e+03,1.598903e+03
3.073014e+03,1.551115e+03
3.084584e+03,1.543039e+03
3.096155e+03,1.540153e+03
3.107726e+03,1.520775e+03
3.119297e+03,1.593551e+03
3.130868e+03,1.554185e+03
3.142438e+03,1.581688e+03
3.154009e+03,1.531859e+03
3.165580e+03,1.544698e+03
3.177151e+03,1.493422e+03
3.188722e+03,1.566119e+03
3.200292e+03,1.572306e+03
3.211863e+03,0.000000e+00
3.223434e+03,0.000000e+00
3.235005e+03,0.000000e+00
3.246576e+03,0.000000e+00
3.258146e+03,0.000000e+00
3.269717e+03,0.000000e+00
3.281288e+03,0.000000e+00
3.292859e+03,0.000000e+00
3.304430e+03,0.000000e+00
3.316000e+03,0.000000e+00
3.327571e+03,0.000000e+00
3.339142e+03,0.000000e+00
3.350713e+03,0.000000e+00
3.362284e+03,0.000000e+00
3.373854e+03,0.000000e+00
3.385425e+03,0.000000e+00
3.396996e+03,0.000000e+00
3.408567e+03,0.000000e+00
3.420138e+03,0.000000e+00
3.431708e+03,0.000000e+00
3.443279e+03,0.000000e+00
3.454850e+03,0.000000e+00
3.466421e+03,0.000000e+00
3.477992e+03,0.000000e+00
3.489563e+03,0.000000e+00
3.500169e+03,0.000000e+00

File: red fibre4.CSV
9.931763e+01,0.000000e+00
1.108884e+02,0.000000e+00
1.224592e+02,0.000000e+00
1.340300e+02,0.000000e+00
1.456008e+02,0.000000e+00
1.571716e+02,0.000000e+00
1.687424e+02,0.000000e+00
1.803132e+02,0.000000e+00
1.918840e+02,0.000000e+00
2.034548e+02,3.476263e+03
2.150256e+02,3.498337e+03
2.265964e+02,3.488671e+03
2.381673e+02,3.525198e+03
2.497381e+02,3.544367e+03
2.613088e+02,3.552825e+03
2.728796e+02,3.559328e+03
2.844504e+02,3.596155e+03
2.960212e+02,3.584964e+03
3.075920e+02,3.604852e+03
3.191628e+02,3.586125e+03
3.307336e+02,3.623566e+03
3.423044e+02,3.606769e+03
3.538752e+02,3.606470e+03
3.654461e+02,3.606698e+03
3.770169e+02,3.632947e+03
3.885877e+02,3.613780e+03
4.001585e+02,3.600770e+03
4.117293e+02,3.606617e+03
4.233001e+02,3.595192e+03
4.348709e+02,3.599541e+03
4.464417e+02,3.578867e+03
4.580125e+02,3.575523e+03
4.695833e+02,3.565479e+03
4.811541e+02,3.549304e+03
4.927249e+02,3.546002e+03
5.042957e+02,3.527754e+03
5.158665e+02,3.538419e+03
5.274373e+02,3.499212e+03
5.390081e+02,3.500789e+03
5.505789e+02,3.476494e+03
5.621497e+02,3.486085e+03
5.737205e+02,3.452480e+03
5.852913e+02,3.435868e+03
5.968621e+02,3.422220e+03
6.084329e+02,3.424374e+03
6.200037e+02,3.402800e+03
6.315745e+02,3.372211e+03
6.431453e+02,3.365393e+03
6.547161e+02,3.362001e+03
6.662869e+02,3.331711e+03
6.778577e+02,3.322291e+03
6.894285e+02,3.296427e+03
7.009993e+02,3.274009e+03
7.125701e+02,3.247395e+03
7.241409e+02,3.229284e+03
7.357117e+02,3.211942e+03
7.472825e+02,3.206516e+03
7.588533e+02,3.177563e+03
7.704241e+02,3.151417e+03
7.819949e+02,3.136222e+03
7.935657e+02,3.125915e+03
8.051365e+02,3.096808e+03
8.167073e+02,3.073268e+03
8.282781e+02,3.065905e+03
8.398489e+02,3.044493e+03
8.514197e+02,3.032309e+03
8.629905e+02,2.997924e+03
8.745613e+02,2.984115e+03
8.861321e+02,2.984449e+03
8.977029e+02,2.942452e+03
9.092737e+02,2.931208e+03
9.208445e+02,2.907434e+03
9.324153e+02,2.905757e+03
9.439861e+02,2.876940e+03
9.555569e+02,2.843589e+03
9.671277e+02,2.841466e+03
9.786985e+02,2.816847e+03
9.902693e+02,2.805875e+03
1.001840e+03,2.777730e+03
1.013411e+03,2.775212e+03
1.024982e+03,2.737063e+03
1.036552e+03,2.740808e+03
1.048123e+03,2.715104e+03
1.059694e+03,2.715248e+03
1.071265e+03,2.703696e+03
1.082836e+03,2.687355e+03
1.094406e+03,2.683982e+03
1.105977e+03,2.658730e+03
1.117548e+03,2.655091e+03
1.129119e+03,2.635509e+03
1.140690e+03,2.614403e+03
1.152261e+03,2.595360e+03
1.163831e+03,2.575586e+03
1.175402e+03,2.556559e+03
1.186973e+03,2.534397e+03
1.198544e+03,2.535846e+03
1.210115e+03,2.525853e+03
1.221685e+03,2.498590e+03
1.233256e+03,2.484593e+03
1.244827e+03,2.485391e+03
1.256398e+03,2.470932e+03
1.267969e+03,2.457198e+03
1.279539e+03,2.460851e+03
1.291110e+03,2.450424e+03
1.302681e+03,2.435817e+03
1.314252e+03,2.409081e+03
1.325823e+03,2.406450e+03
1.337393e+03,2.402413e+03
1.348964e+03,2.403456e+03
1.360535e+03,2.375990e+03
1.372106e+03,2.372850e+03
1.383677e+03,2.362846e+03
1.395247e+03,2.338231e+03
1.406818e+03,2.328220e+03
1.418389e+03,2.321508e+03
1.429960e+03,2.292738e+03
1.441531e+03,2.295920e+03
1.453101e+03,2.268071e+03
1.464672e+03,2.257721e+03
1.476243e+03,2.254764e+03
1.487814e+03,2.229882e+03
1.499385e+03,2.227339e+03
1.510955e+03,2.188172e+03
1.522526e+03,2.197367e+03
1.534097e+03,2.176057e+03
1.545668e+03,2.172617e+03
1.557239e+03,2.163907e+03
1.568809e+03,2.158970e+03
1.580380e+03,2.149357e+03
1.591951e+03,2.132828e+03
1.603522e+03,2.121917e+03
1.615093e+03,2.100270e+03
1.626663e+03,2.087706e+03
1.638234e+03,2.068648e+03
1.649805e+03,2.052935e+03
1.661376e+03,2.039360e+03
1.672947e+03,2.015897e+03
1.684517e+03,2.011506e+03
1.696088e+03,1.974155e+03
1.707659e+03,1.978418e+03
1.719230e+03,1.948986e+03
1.730801e+03,1.937107e+03
1.742371e+03,1.916974e+03
1.753942e+03,1.923961e+03
1.765513e+03,1.903216e+03
1.777084e+03,1.882267e+03
1.788655e+03,1.868053e+03
1.800225e+03,1.843829e+03
1.811796e+03,1.819350e+03
1.823367e+03,1.803528e+03
1.834938e+03,1.793379e+03
1.846509e+03,1.790561e+03
1.858079e+03,1.763170e+03
1.869650e+03,1.755468e+03
1.881221e+03,1.724255e+03
1.892792e+03,1.722762e+03
1.904363e+03,1.703186e+03
1.915933e+03,1.662052e+03
1.927504e+03,1.668491e+03
1.939075e+03,1.642008e+03
1.950646e+03,1.624790e+03
1.962217e+03,1.611868e+03
1.973787e+03,1.597698e+03
1.985358e+03,1.576666e+03
1.996929e+03,1.555155e+03
2.008500e+03,1.559539e+03
2.020071e+03,1.529746e+03
2.031641e+03,1.519204e+03
2.043212e+03,1.478929e+03
2.054783e+03,1.473122e+03
2.066354e+03,1.462151e+03
2.077925e+03,1.460657e+03
2.089496e+03,1.421679e+03
2.101066e+03,1.423066e+03
2.112637e+03,1.404391e+03
2.124208e+03,1.374307e+03
2.135779e+03,1.368343e+03
2.147350e+03,1.337849e+03
2.158920e+03,1.343034e+03
2.170491e+03,1.308285e+03
2.182062e+03,1.291168e+03
2.193633e+03,1.286219e+03
2.205204e+03,1.278646e+03
2.216774e+03,1.254034e+03
2.228345e+03,1.240459e+03
2.239916e+03,1.224000e+03
2.251487e+03,1.219503e+03
2.263058e+03,1.200462e+03
2.274628e+03,1.167787e+03
2.286199e+03,1.163562e+03
2.297770e+03,1.160483e+03
2.309341e+03,1.138295e+03
2.320912e+03,1.117008e+03
2.332482e+03,1.114612e+03
2.344053e+03,1.109327e+03
2.355624e+03,1.080540e+03
2.367195e+03,1.078726e+03
2.378766e+03,1.067870e+03
2.390336e+03,1.053549e+03
2.401907e+03,1.038426e+03
2.413478e+03,1.027009e+03
2.425049e+03,9.989188e+02
2.436620e+03,9.861885e+02
2.448190e+03,9.717082e+02
2.459761e+03,9.712247e+02
2.471332e+03,9.690205e+02
2.482903e+03,9.421174e+02
2.494474e+03,9.456711e+02
2.506044e+03,9.273941e+02
2.517615e+03,9.237159e+02
2.529186e+03,9.027990e+02
2.540757e+03,8.970628e+02
2.552328e+03,9.099373e+02
2.563898e+03,8.989717e+02
2.575469e+03,8.864991e+02
2.587040e+03,8.681017e+02
2.598611e+03,8.739764e+02
2.610182e+03,8.530828e+02
2.621752e+03,8.474048e+02
2.633323e+03,8.436351e+02
2.644894e+03,8.365411e+02
2.656465e+03,8.171959e+02
2.668036e+03,8.197567e+02
2.679606e+03,7.997639e+02
2.691177e+03,7.829559e+02
2.702748e+03,7.890392e+02
2.714319e+03,7.936371e+02
2.725890e+03,7.851699e+02
2.737460e+03,7.590739e+02
2.749031e+03,7.631484e+02
2.760602e+03,7.440566e+02
2.772173e+03,7.676588e+02
2.783744e+03,7.241684e+02
2.795314e+03,7.299796e+02
2.806885e+03,7.219990e+02
2.818456e+03,7.297228e+02
2.830027e+03,7.182178e+02
2.841598e+03,7.236340e+02
2.853168e+03,7.225412e+02
2.864739e+03,7.192038e+02
2.876310e+03,7.226819e+02
2.887881e+03,7.260378e+02
2.899452e+03,7.298112e+02
2.911022e+03,7.190311e+02
2.922593e+03,6.968434e+02
2.934164e+03,7.121984e+02
2.945735e+03,6.817135e+02
2.957306e+03,7.201260e+02
2.968876e+03,6.634209e+02
2.980447e+03,6.484325e+02
2.992018e+03,6.385433e+02
3.003589e+03,6.400550e+02
3.015160e+03,6.274215e+02
3.026730e+03,6.317962e+02
3.038301e+03,6.528908e+02
3.049872e+03,6.170226e+02
3.061443e+03,6.570555e+02
3.073014e+03,5.790053e+02
3.084584e+03,6.139490e+02
3.096155e+03,6.063900e+02
3.107726e+03,5.995173e+02
3.119297e+03,6.208121e+02
3.130868e+03,5.893807e+02
3.142438e+03,6.459799e+02
3.154009e+03,5.951221e+02
3.165580e+03,6.457493e+02
3.177151e+03,6.019159e+02
3.188722e+03,5.895948e+02
3.200292e+03,6.343485e+02
3.211863e+03,0.000000e+00
3.223434e+03,0.000000e+00
3.235005e+03,0.000000e+00
3.246576e+03,0.000000e+00
3.258146e+03,0.000000e+00
3.269717e+03,0.000000e+00
3.281288e+03,0.000000e+00
3.292859e+03,0.000000e+00
3.304430e+03,0.000000e+00
3.316000e+03,0.000000e+00
3.327571e+03,0.000000e+00
3.339142e+03,0.000000e+00
3.350713e+03,0.000000e+00
3.362284e+03,0.000000e+00
3.373854e+03,0.000000e+00
3.385425e+03,0.000000e+00
3.396996e+03,0.000000e+00
3.408567e+03,0.000000e+00
3.420138e+03,0.000000e+00
3.431708e+03,0.000000e+00
3.443279e+03,0.000000e+00
3.454850e+03,0.000000e+00
3.466421e+03,0.000000e+00
3.477992e+03,0.000000e+00
3.489563e+03,0.000000e+00
3.500169e+03,0.000000e+00