Folder: Taff_Bargoed_microplastics_data/RAMAN_data/13112023_r2

Note: README.md
# Taff_Bargoed_microplastics_data

File: black fibre2.CSV
9.931763e+01,0.000000e+00
1.108884e+02,0.000000e+00
1.224592e+02,0.000000e+00
1.340300e+02,0.000000e+00
1.456008e+02,0.000000e+00
1.571716e+02,0.000000e+00
1.687424e+02,0.000000e+00
1.803132e+02,0.000000e+00
1.918840e+02,0.000000e+00
2.034548e+02,1.627558e+03
2.150256e+02,1.638741e+03
2.265964e+02,1.638712e+03
2.381673e+02,1.643666e+03
2.497381e+02,1.655690e+03
2.613088e+02,1.652828e+03
2.728796e+02,1.658740e+03
2.844504e+02,1.665182e+03
2.960212e+02,1.657960e+03
3.075920e+02,1.657557e+03
3.191628e+02,1.683903e+03
3.307336e+02,1.674281e+03
3.423044e+02,1.665876e+03
3.538752e+02,1.673948e+03
3.654461e+02,1.688386e+03
3.770169e+02,1.694208e+03
3.885877e+02,1.673766e+03
4.001585e+02,1.670533e+03
4.117293e+02,1.661966e+03
4.233001e+02,1.660462e+03
4.348709e+02,1.666538e+03
4.464417e+02,1.658012e+03
4.580125e+02,1.658852e+03
4.695833e+02,1.656820e+03
4.811541e+02,1.645830e+03
4.927249e+02,1.649343e+03
5.042957e+02,1.655559e+03
5.158665e+02,1.649595e+03
5.274373e+02,1.643340e+03
5.390081e+02,1.627965e+03
5.505789e+02,1.637645e+03
5.621497e+02,1.632443e+03
5.737205e+02,1.636863e+03
5.852913e+02,1.613378e+03
5.968621e+02,1.615712e+03
6.084329e+02,1.618521e+03
6.200037e+02,1.606511e+03
6.315745e+02,1.599959e+03
6.431453e+02,1.595604e+03
6.547161e+02,1.596305e+03
6.662869e+02,1.593665e+03
6.778577e+02,1.583948e+03
6.894285e+02,1.589674e+03
7.009993e+02,1.579821e+03
7.125701e+02,1.570929e+03
7.241409e+02,1.558484e+03
7.357117e+02,1.561267e+03
7.472825e+02,1.543649e+03
7.588533e+02,1.541717e+03
7.704241e+02,1.537740e+03
7.819949e+02,1.544830e+03
7.935657e+02,1.541982e+03
8.051365e+02,1.521088e+03
8.167073e+02,1.520629e+03
8.282781e+02,1.517485e+03
8.398489e+02,1.510720e+03
8.514197e+02,1.508644e+03
8.629905e+02,1.513365e+03
8.745613e+02,1.497698e+03
8.861321e+02,1.502590e+03
8.977029e+02,1.492301e+03
9.092737e+02,1.469123e+03
9.208445e+02,1.470499e+03
9.324153e+02,1.461414e+03
9.439861e+02,1.455497e+03
9.555569e+02,1.456859e+03
9.671277e+02,1.456539e+03
9.786985e+02,1.435212e+03
9.902693e+02,1.435720e+03
1.001840e+03,1.441595e+03
1.013411e+03,1.430535e+03
1.024982e+03,1.445664e+03
1.036552e+03,1.433714e+03
1.048123e+03,1.433089e+03
1.059694e+03,1.419381e+03
1.071265e+03,1.423566e+03
1.082836e+03,1.421581e+03
1.094406e+03,1.427794e+03
1.105977e+03,1.415269e+03
1.117548e+03,1.421145e+03
1.129119e+03,1.414635e+03
1.140690e+03,1.394397e+03
1.152261e+03,1.403958e+03
1.163831e+03,1.389292e+03
1.175402e+03,1.394416e+03
1.186973e+03,1.383080e+03
1.198544e+03,1.393480e+03
1.210115e+03,1.389211e+03
1.221685e+03,1.376629e+03
1.233256e+03,1.376109e+03
1.244827e+03,1.381984e+03
1.256398e+03,1.375124e+03
1.267969e+03,1.389427e+03
1.279539e+03,1.379836e+03
1.291110e+03,1.381285e+03
1.302681e+03,1.374090e+03
1.314252e+03,1.376202e+03
1.325823e+03,1.382450e+03
1.337393e+03,1.381507e+03
1.348964e+03,1.368645e+03
1.360535e+03,1.371000e+03
1.372106e+03,1.364284e+03
1.383677e+03,1.356127e+03
1.395247e+03,1.339777e+03
1.406818e+03,1.337151e+03
1.418389e+03,1.341330e+03
1.429960e+03,1.333544e+03
1.441531e+03,1.333152e+03
1.453101e+03,1.324426e+03
1.464672e+03,1.309670e+03
1.476243e+03,1.317127e+03
1.487814e+03,1.310357e+03
1.499385e+03,1.291959e+03
1.510955e+03,1.297552e+03
1.522526e+03,1.298327e+03
1.534097e+03,1.301616e+03
1.545668e+03,1.293461e+03
1.557239e+03,1.298684e+03
1.568809e+03,1.317395e+03
1.580380e+03,1.314806e+03
1.591951e+03,1.315259e+03
1.603522e+03,1.308091e+03
1.615093e+03,1.283540e+03
1.626663e+03,1.260903e+03
1.638234e+03,1.257816e+03
1.649805e+03,1.246968e+03
1.661376e+03,1.243829e+03
1.672947e+03,1.236432e+03
1.684517e+03,1.232910e+03
1.696088e+03,1.221585e+03
1.707659e+03,1.202927e+03
1.719230e+03,1.202721e+03
1.730801e+03,1.212354e+03
1.742371e+03,1.213866e+03
1.753942e+03,1.206727e+03
1.765513e+03,1.190442e+03
1.777084e+03,1.185232e+03
1.788655e+03,1.174220e+03
1.800225e+03,1.174147e+03
1.811796e+03,1.171399e+03
1.823367e+03,1.161888e+03
1.834938e+03,1.168708e+03
1.846509e+03,1.170553e+03
1.858079e+03,1.151833e+03
1.869650e+03,1.158807e+03
1.881221e+03,1.147667e+03
1.892792e+03,1.132453e+03
1.904363e+03,1.121237e+03
1.915933e+03,1.096308e+03
1.927504e+03,1.124342e+03
1.939075e+03,1.102234e+03
1.950646e+03,1.078191e+03
1.962217e+03,1.105165e+03
1.973787e+03,1.085754e+03
1.985358e+03,1.084495e+03
1.996929e+03,1.072403e+03
2.008500e+03,1.066013e+03
2.020071e+03,1.054030e+03
2.031641e+03,1.063010e+03
2.043212e+03,1.043560e+03
2.054783e+03,1.042338e+03
2.066354e+03,1.024609e+03
2.077925e+03,1.039299e+03
2.089496e+03,1.015102e+03
2.101066e+03,1.005014e+03
2.112637e+03,9.991324e+02
2.124208e+03,9.983361e+02
2.135779e+03,9.916845e+02
2.147350e+03,9.771406e+02
2.158920e+03,9.784519e+02
2.170491e+03,9.830768e+02
2.182062e+03,9.689717e+02
2.193633e+03,9.596400e+02
2.205204e+03,9.535685e+02
2.216774e+03,9.432264e+02
2.228345e+03,9.299425e+02
2.239916e+03,9.353963e+02
2.251487e+03,9.223585e+02
2.263058e+03,9.097460e+02
2.274628e+03,9.124269e+02
2.286199e+03,9.041773e+02
2.297770e+03,8.980881e+02
2.309341e+03,8.940969e+02
2.320912e+03,8.769764e+02
2.332482e+03,8.775447e+02
2.344053e+03,8.612269e+02
2.355624e+03,8.704222e+02
2.367195e+03,8.552191e+02
2.378766e+03,8.537360e+02
2.390336e+03,8.606495e+02
2.401907e+03,8.390466e+02
2.413478e+03,8.254200e+02
2.425049e+03,8.286677e+02
2.436620e+03,8.339285e+02
2.448190e+03,8.141898e+02
2.459761e+03,8.161892e+02
2.471332e+03,8.215609e+02
2.482903e+03,8.099613e+02
2.494474e+03,7.992610e+02
2.506044e+03,8.024250e+02
2.517615e+03,7.976553e+02
2.529186e+03,7.762848e+02
2.540757e+03,7.795084e+02
2.552328e+03,7.772682e+02
2.563898e+03,7.835574e+02
2.575469e+03,7.841915e+02
2.587040e+03,7.716085e+02
2.598611e+03,7.626420e+02
2.610182e+03,7.690612e+02
2.621752e+03,7.630236e+02
2.633323e+03,7.471691e+02
2.644894e+03,7.471028e+02
2.656465e+03,7.520624e+02
2.668036e+03,7.462078e+02
2.679606e+03,7.474713e+02
2.691177e+03,7.439304e+02
2.702748e+03,7.444874e+02
2.714319e+03,7.249408e+02
2.725890e+03,7.263800e+02
2.737460e+03,7.302952e+02
2.749031e+03,7.402297e+02
2.760602e+03,7.284315e+02
2.772173e+03,7.112645e+02
2.783744e+03,7.075685e+02
2.795314e+03,7.089083e+02
2.806885e+03,6.850740e+02
2.818456e+03,6.985162e+02
2.830027e+03,7.027269e+02
2.841598e+03,7.139688e+02
2.853168e+03,7.193390e+02
2.864739e+03,7.200424e+02
2.876310e+03,7.129786e+02
2.887881e+03,7.441129e+02
2.899452e+03,7.018198e+02
2.911022e+03,7.072761e+02
2.922593e+03,6.854651e+02
2.934164e+03,7.059516e+02
2.945735e+03,6.729727e+02
2.957306e+03,7.067308e+02
2.968876e+03,6.715177e+02
2.980447e+03,6.886415e+02
2.992018e+03,6.482442e+02
3.003589e+03,6.691824e+02
3.015160e+03,6.546506e+02
3.026730e+03,6.610549e+02
3.038301e+03,6.625624e+02
3.049872e+03,6.591722e+02
3.061443e+03,6.339247e+02
3.073014e+03,6.409574e+02
3.084584e+03,6.524605e+02
3.096155e+03,6.226446e+02
3.107726e+03,6.226163e+02
3.119297e+03,6.298334e+02
3.130868e+03,6.472991e+02
3.142438e+03,6.613030e+02
3.154009e+03,6.573705e+02
3.165580e+03,6.394958e+02
3.177151e+03,6.204554e+02
3.188722e+03,6.713143e+02
3.200292e+03,6.492584e+02
3.211863e+03,0.000000e+00
3.223434e+03,0.000000e+00
3.235005e+03,0.000000e+00
3.246576e+03,0.000000e+00
3.258146e+03,0.000000e+00
3.269717e+03,0.000000e+00
3.281288e+03,0.000000e+00
3.292859e+03,0.000000e+00
3.304430e+03,0.000000e+00
3.316000e+03,0.000000e+00
3.327571e+03,0.000000e+00
3.339142e+03,0.000000e+00
3.350713e+03,0.000000e+00
3.362284e+03,0.000000e+00
3.373854e+03,0.000000e+00
3.385425e+03,0.000000e+00
3.396996e+03,0.000000e+00
3.408567e+03,0.000000e+00
3.420138e+03,0.000000e+00
3.431708e+03,0.000000e+00
3.443279e+03,0.000000e+00
3.454850e+03,0.000000e+00
3.466421e+03,0.000000e+00
3.477992e+03,0.000000e+00
3.489563e+03,0.000000e+00
3.500169e+03,0.000000e+00

File: black fibre3.CSV
9.931763e+01,0.000000e+00
1.108884e+02,0.000000e+00
1.224592e+02,0.000000e+00
1.340300e+02,0.000000e+00
1.456008e+02,0.000000e+00
1.571716e+02,0.000000e+00
1.687424e+02,0.000000e+00
1.803132e+02,0.000000e+00
1.918840e+02,0.000000e+00
2.034548e+02,1.702051e+03
2.150256e+02,1.698600e+03
2.265964e+02,1.701188e+03
2.381673e+02,1.717654e+03
2.497381e+02,1.720210e+03
2.613088e+02,1.723483e+03
2.728796e+02,1.728793e+03
2.844504e+02,1.729478e+03
2.960212e+02,1.742937e+03
3.075920e+02,1.734863e+03
3.191628e+02,1.752898e+03
3.307336e+02,1.763383e+03
3.423044e+02,1.759472e+03
3.538752e+02,1.756237e+03
3.654461e+02,1.765016e+03
3.770169e+02,1.784197e+03
3.885877e+02,1.776782e+03
4.001585e+02,1.755496e+03
4.117293e+02,1.756680e+03
4.233001e+02,1.755042e+03
4.348709e+02,1.776355e+03
4.464417e+02,1.755766e+03
4.580125e+02,1.762114e+03
4.695833e+02,1.733373e+03
4.811541e+02,1.735460e+03
4.927249e+02,1.743833e+03
5.042957e+02,1.746035e+03
5.158665e+02,1.740999e+03
5.274373e+02,1.722694e+03
5.390081e+02,1.706555e+03
5.505789e+02,1.714707e+03
5.621497e+02,1.723510e+03
5.737205e+02,1.721528e+03
5.852913e+02,1.708941e+03
5.968621e+02,1.684709e+03
6.084329e+02,1.693396e+03
6.200037e+02,1.686730e+03
6.315745e+02,1.683811e+03
6.431453e+02,1.673975e+03
6.547161e+02,1.666293e+03
6.662869e+02,1.661395e+03
6.778577e+02,1.646301e+03
6.894285e+02,1.646730e+03
7.009993e+02,1.638648e+03
7.125701e+02,1.644846e+03
7.241409e+02,1.639553e+03
7.357117e+02,1.619404e+03
7.472825e+02,1.615714e+03
7.588533e+02,1.617117e+03
7.704241e+02,1.598110e+03
7.819949e+02,1.597197e+03
7.935657e+02,1.589688e+03
8.051365e+02,1.572835e+03
8.167073e+02,1.580145e+03
8.282781e+02,1.570598e+03
8.398489e+02,1.559430e+03
8.514197e+02,1.546141e+03
8.629905e+02,1.533133e+03
8.745613e+02,1.544414e+03
8.861321e+02,1.537086e+03
8.977029e+02,1.526887e+03
9.092737e+02,1.521961e+03
9.208445e+02,1.507228e+03
9.324153e+02,1.495288e+03
9.439861e+02,1.496334e+03
9.555569e+02,1.477184e+03
9.671277e+02,1.473365e+03
9.786985e+02,1.469766e+03
9.902693e+02,1.467196e+03
1.001840e+03,1.446424e+03
1.013411e+03,1.445107e+03
1.024982e+03,1.442132e+03
1.036552e+03,1.442984e+03
1.048123e+03,1.436886e+03
1.059694e+03,1.430378e+03
1.071265e+03,1.435693e+03
1.082836e+03,1.430596e+03
1.094406e+03,1.456828e+03
1.105977e+03,1.433018e+03
1.117548e+03,1.441412e+03
1.129119e+03,1.431153e+03
1.140690e+03,1.417169e+03
1.152261e+03,1.414498e+03
1.163831e+03,1.390750e+03
1.175402e+03,1.377178e+03
1.186973e+03,1.373745e+03
1.198544e+03,1.367520e+03
1.210115e+03,1.365996e+03
1.221685e+03,1.349812e+03
1.233256e+03,1.345046e+03
1.244827e+03,1.344290e+03
1.256398e+03,1.345105e+03
1.267969e+03,1.338593e+03
1.279539e+03,1.356256e+03
1.291110e+03,1.346580e+03
1.302681e+03,1.327910e+03
1.314252e+03,1.323924e+03
1.325823e+03,1.344155e+03
1.337393e+03,1.335873e+03
1.348964e+03,1.323615e+03
1.360535e+03,1.317916e+03
1.372106e+03,1.306536e+03
1.383677e+03,1.309090e+03
1.395247e+03,1.285471e+03
1.406818e+03,1.283864e+03
1.418389e+03,1.265744e+03
1.429960e+03,1.276834e+03
1.441531e+03,1.263820e+03
1.453101e+03,1.257761e+03
1.464672e+03,1.246526e+03
1.476243e+03,1.243902e+03
1.487814e+03,1.231299e+03
1.499385e+03,1.223484e+03
1.510955e+03,1.226785e+03
1.522526e+03,1.219333e+03
1.534097e+03,1.218302e+03
1.545668e+03,1.206866e+03
1.557239e+03,1.212451e+03
1.568809e+03,1.206459e+03
1.580380e+03,1.213055e+03
1.591951e+03,1.194949e+03
1.603522e+03,1.184474e+03
1.615093e+03,1.180992e+03
1.626663e+03,1.171305e+03
1.638234e+03,1.155843e+03
1.649805e+03,1.152115e+03
1.661376e+03,1.141535e+03
1.672947e+03,1.152109e+03
1.684517e+03,1.132253e+03
1.696088e+03,1.125520e+03
1.707659e+03,1.110258e+03
1.719230e+03,1.106987e+03
1.730801e+03,1.093530e+03
1.742371e+03,1.086393e+03
1.753942e+03,1.087057e+03
1.765513e+03,1.075101e+03
1.777084e+03,1.057704e+03
1.788655e+03,1.066372e+03
1.800225e+03,1.061060e+03
1.811796e+03,1.053567e+03
1.823367e+03,1.030086e+03
1.834938e+03,1.048770e+03
1.846509e+03,9.988879e+02
1.858079e+03,1.003668e+03
1.869650e+03,1.013701e+03
1.881221e+03,9.800363e+02
1.892792e+03,9.830720e+02
1.904363e+03,9.736608e+02
1.915933e+03,9.845053e+02
1.927504e+03,9.615511e+02
1.939075e+03,9.575676e+02
1.950646e+03,9.504828e+02
1.962217e+03,9.398897e+02
1.973787e+03,9.297183e+02
1.985358e+03,9.272298e+02
1.996929e+03,9.125583e+02
2.008500e+03,9.032624e+02
2.020071e+03,8.873596e+02
2.031641e+03,8.935847e+02
2.043212e+03,8.625860e+02
2.054783e+03,8.680398e+02
2.066354e+03,8.631242e+02
2.077925e+03,8.436290e+02
2.089496e+03,8.382623e+02
2.101066e+03,8.342165e+02
2.112637e+03,8.291133e+02
2.124208e+03,8.214171e+02
2.135779e+03,8.083306e+02
2.147350e+03,7.869288e+02
2.158920e+03,8.002141e+02
2.170491e+03,7.834282e+02
2.182062e+03,7.854135e+02
2.193633e+03,7.744572e+02
2.205204e+03,7.605659e+02
2.216774e+03,7.795866e+02
2.228345e+03,7.415926e+02
2.239916e+03,7.402725e+02
2.251487e+03,7.429855e+02
2.263058e+03,7.182494e+02
2.274628e+03,7.132267e+02
2.286199e+03,6.905733e+02
2.297770e+03,7.128384e+02
2.309341e+03,6.966208e+02
2.320912e+03,6.728515e+02
2.332482e+03,6.788263e+02
2.344053e+03,6.790767e+02
2.355624e+03,6.644648e+02
2.367195e+03,6.578447e+02
2.378766e+03,6.515524e+02
2.390336e+03,6.420012e+02
2.401907e+03,6.336306e+02
2.413478e+03,6.366522e+02
2.425049e+03,6.275084e+02
2.436620e+03,6.249664e+02
2.448190e+03,6.103914e+02
2.459761e+03,6.123362e+02
2.471332e+03,6.105975e+02
2.482903e+03,6.057748e+02
2.494474e+03,5.898867e+02
2.506044e+03,5.853646e+02
2.517615e+03,5.785900e+02
2.529186e+03,5.702815e+02
2.540757e+03,5.737638e+02
2.552328e+03,5.726975e+02
2.563898e+03,5.624431e+02
2.575469e+03,5.670756e+02
2.587040e+03,5.536765e+02
2.598611e+03,5.427598e+02
2.610182e+03,5.393903e+02
2.621752e+03,5.454952e+02
2.633323e+03,5.336597e+02
2.644894e+03,5.248604e+02
2.656465e+03,5.265258e+02
2.668036e+03,5.339241e+02
2.679606e+03,5.147250e+02
2.691177e+03,5.235754e+02
2.702748e+03,5.077618e+02
2.714319e+03,5.105458e+02
2.725890e+03,4.857049e+02
2.737460e+03,4.845486e+02
2.749031e+03,4.960363e+02
2.760602e+03,4.877034e+02
2.772173e+03,4.894528e+02
2.783744e+03,4.895622e+02
2.795314e+03,4.839380e+02
2.806885e+03,4.836687e+02
2.818456e+03,4.552272e+02
2.830027e+03,4.664654e+02
2.841598e+03,4.848691e+02
2.853168e+03,4.808540e+02
2.864739e+03,4.725302e+02
2.876310e+03,5.080738e+02
2.887881e+03,5.136901e+02
2.899452e+03,4.998422e+02
2.911022e+03,4.983684e+02
2.922593e+03,4.807369e+02
2.934164e+03,4.775949e+02
2.945735e+03,4.625946e+02
2.957306e+03,4.751230e+02
2.968876e+03,4.510065e+02
2.980447e+03,4.243581e+02
2.992018e+03,4.351247e+02
3.003589e+03,4.249398e+02
3.015160e+03,4.278868e+02
3.026730e+03,4.070780e+02
3.038301e+03,3.938815e+02
3.049872e+03,4.051946e+02
3.061443e+03,4.085060e+02
3.073014e+03,4.139574e+02
3.084584e+03,4.093895e+02
3.096155e+03,3.969634e+02
3.107726e+03,4.094510e+02
3.119297e+03,4.012784e+02
3.130868e+03,4.118803e+02
3.142438e+03,4.007104e+02
3.154009e+03,4.167846e+02
3.165580e+03,4.125831e+02
3.177151e+03,3.846634e+02
3.188722e+03,3.922020e+02
3.200292e+03,4.161683e+02
3.211863e+03,0.000000e+00
3.223434e+03,0.000000e+00
3.235005e+03,0.000000e+00
3.246576e+03,0.000000e+00
3.258146e+03,0.000000e+00
3.269717e+03,0.000000e+00
3.281288e+03,0.000000e+00
3.292859e+03,0.000000e+00
3.304430e+03,0.000000e+00
3.316000e+03,0.000000e+00
3.327571e+03,0.000000e+00
3.339142e+03,0.000000e+00
3.350713e+03,0.000000e+00
3.362284e+03,0.000000e+00
3.373854e+03,0.000000e+00
3.385425e+03,0.000000e+00
3.396996e+03,0.000000e+00
3.408567e+03,0.000000e+00
3.420138e+03,0.000000e+00
3.431708e+03,0.000000e+00
3.443279e+03,0.000000e+00
3.454850e+03,0.000000e+00
3.466421e+03,0.000000e+00
3.477992e+03,0.000000e+00
3.489563e+03,0.000000e+00
3.500169e+03,0.000000e+00

File: blue fibre1.CSV
9.931763e+01,0.000000e+00
1.108884e+02,0.000000e+00
1.224592e+02,0.000000e+00
1.340300e+02,0.000000e+00
1.456008e+02,0.000000e+00
1.571716e+02,0.000000e+00
1.687424e+02,0.000000e+00
1.803132e+02,0.000000e+00
1.918840e+02,0.000000e+00
2.034548e+02,5.334268e+03
2.150256e+02,5.332989e+03
2.265964e+02,5.367196e+03
2.381673e+02,5.412636e+03
2.497381e+02,5.429456e+03
2.613088e+02,5.471245e+03
2.728796e+02,5.485718e+03
2.844504e+02,5.515088e+03
2.960212e+02,5.532063e+03
3.075920e+02,5.558141e+03
3.191628e+02,5.591032e+03
3.307336e+02,5.608442e+03
3.423044e+02,5.635235e+03
3.538752e+02,5.662838e+03
3.654461e+02,5.669943e+03
3.770169e+02,5.712597e+03
3.885877e+02,5.735672e+03
4.001585e+02,5.717501e+03
4.117293e+02,5.760667e+03
4.233001e+02,5.775762e+03
4.348709e+02,5.808456e+03
4.464417e+02,5.792401e+03
4.580125e+02,5.804305e+03
4.695833e+02,5.818828e+03
4.811541e+02,5.869085e+03
4.927249e+02,5.849909e+03
5.042957e+02,5.874524e+03
5.158665e+02,5.885578e+03
5.274373e+02,5.903140e+03
5.390081e+02,5.881855e+03
5.505789e+02,5.909486e+03
5.621497e+02,5.939031e+03
5.737205e+02,5.944461e+03
5.852913e+02,5.943852e+03
5.968621e+02,5.949022e+03
6.084329e+02,5.966225e+03
6.200037e+02,5.943964e+03
6.315745e+02,5.964058e+03
6.431453e+02,5.966598e+03
6.547161e+02,5.984204e+03
6.662869e+02,5.959031e+03
6.778577e+02,6.061612e+03
6.894285e+02,5.984702e+03
7.009993e+02,5.985999e+03
7.125701e+02,5.973247e+03
7.241409e+02,5.970667e+03
7.357117e+02,5.982361e+03
7.472825e+02,6.062129e+03
7.588533e+02,5.956543e+03
7.704241e+02,5.968867e+03
7.819949e+02,5.942983e+03
7.935657e+02,5.952009e+03
8.051365e+02,5.927965e+03
8.167073e+02,5.937589e+03
8.282781e+02,5.947468e+03
8.398489e+02,5.929223e+03
8.514197e+02,5.910034e+03
8.629905e+02,5.907075e+03
8.745613e+02,5.858167e+03
8.861321e+02,5.892408e+03
8.977029e+02,5.856745e+03
9.092737e+02,5.822177e+03
9.208445e+02,5.802594e+03
9.324153e+02,5.806511e+03
9.439861e+02,5.788206e+03
9.555569e+02,5.771044e+03
9.671277e+02,5.747347e+03
9.786985e+02,5.747624e+03
9.902693e+02,5.704624e+03
1.001840e+03,5.684729e+03
1.013411e+03,5.656162e+03
1.024982e+03,5.659483e+03
1.036552e+03,5.662136e+03
1.048123e+03,5.623134e+03
1.059694e+03,5.617345e+03
1.071265e+03,5.590864e+03
1.082836e+03,5.586933e+03
1.094406e+03,5.563998e+03
1.105977e+03,5.578313e+03
1.117548e+03,5.543430e+03
1.129119e+03,5.520401e+03
1.140690e+03,5.537854e+03
1.152261e+03,5.503515e+03
1.163831e+03,5.496514e+03
1.175402e+03,5.437816e+03
1.186973e+03,5.419521e+03
1.198544e+03,5.449236e+03
1.210115e+03,5.413035e+03
1.221685e+03,5.382219e+03
1.233256e+03,5.329446e+03
1.244827e+03,5.324553e+03
1.256398e+03,5.293860e+03
1.267969e+03,5.267117e+03
1.279539e+03,5.237710e+03
1.291110e+03,5.240187e+03
1.302681e+03,5.256211e+03
1.314252e+03,5.186993e+03
1.325823e+03,5.185161e+03
1.337393e+03,5.260883e+03
1.348964e+03,5.160933e+03
1.360535e+03,5.121946e+03
1.372106e+03,5.101655e+03
1.383677e+03,5.085097e+03
1.395247e+03,5.037991e+03
1.406818e+03,5.001775e+03
1.418389e+03,5.003708e+03
1.429960e+03,5.005399e+03
1.441531e+03,4.994335e+03
1.453101e+03,4.963946e+03
1.464672e+03,4.974323e+03
1.476243e+03,4.926678e+03
1.487814e+03,4.913165e+03
1.499385e+03,4.882900e+03
1.510955e+03,4.849221e+03
1.522526e+03,4.965117e+03
1.534097e+03,4.900056e+03
1.545668e+03,4.837036e+03
1.557239e+03,4.825049e+03
1.568809e+03,4.779025e+03
1.580380e+03,4.751702e+03
1.591951e+03,4.738167e+03
1.603522e+03,4.702621e+03
1.615093e+03,4.655536e+03
1.626663e+03,4.644792e+03
1.638234e+03,4.609286e+03
1.649805e+03,4.556917e+03
1.661376e+03,4.572348e+03
1.672947e+03,4.534894e+03
1.684517e+03,4.494357e+03
1.696088e+03,4.484496e+03
1.707659e+03,4.476819e+03
1.719230e+03,4.445640e+03
1.730801e+03,4.391243e+03
1.742371e+03,4.395579e+03
1.753942e+03,4.353693e+03
1.765513e+03,4.341049e+03
1.777084e+03,4.290917e+03
1.788655e+03,4.271064e+03
1.800225e+03,4.241551e+03
1.811796e+03,4.212385e+03
1.823367e+03,4.195018e+03
1.834938e+03,4.210506e+03
1.846509e+03,4.164460e+03
1.858079e+03,4.133790e+03
1.869650e+03,4.088796e+03
1.881221e+03,4.066542e+03
1.892792e+03,4.046828e+03
1.904363e+03,4.066079e+03
1.915933e+03,3.979523e+03
1.927504e+03,3.964070e+03
1.939075e+03,3.958651e+03
1.950646e+03,3.913560e+03
1.962217e+03,3.890326e+03
1.973787e+03,3.848767e+03
1.985358e+03,3.834950e+03
1.996929e+03,3.832140e+03
2.008500e+03,3.780427e+03
2.020071e+03,3.743429e+03
2.031641e+03,3.702410e+03
2.043212e+03,3.681195e+03
2.054783e+03,3.654415e+03
2.066354e+03,3.605901e+03
2.077925e+03,3.623128e+03
2.089496e+03,3.562529e+03
2.101066e+03,3.555133e+03
2.112637e+03,3.546113e+03
2.124208e+03,3.504890e+03
2.135779e+03,3.440796e+03
2.147350e+03,3.423447e+03
2.158920e+03,3.408448e+03
2.170491e+03,3.381140e+03
2.182062e+03,3.345574e+03
2.193633e+03,3.337985e+03
2.205204e+03,3.303973e+03
2.216774e+03,3.271018e+03
2.228345e+03,3.222398e+03
2.239916e+03,3.184081e+03
2.251487e+03,3.182015e+03
2.263058e+03,3.142875e+03
2.274628e+03,3.129029e+03
2.286199e+03,3.074412e+03
2.297770e+03,3.075962e+03
2.309341e+03,3.050345e+03
2.320912e+03,3.017287e+03
2.332482e+03,2.990485e+03
2.344053e+03,2.977056e+03
2.355624e+03,2.971883e+03
2.367195e+03,2.899766e+03
2.378766e+03,2.889739e+03
2.390336e+03,2.896995e+03
2.401907e+03,2.866421e+03
2.413478e+03,2.837391e+03
2.425049e+03,2.785871e+03
2.436620e+03,2.782594e+03
2.448190e+03,2.753500e+03
2.459761e+03,2.714478e+03
2.471332e+03,2.725359e+03
2.482903e+03,2.719540e+03
2.494474e+03,2.656879e+03
2.506044e+03,2.611996e+03
2.517615e+03,2.644337e+03
2.529186e+03,2.589917e+03
2.540757e+03,2.605602e+03
2.552328e+03,2.560045e+03
2.563898e+03,2.546345e+03
2.575469e+03,2.543043e+03
2.587040e+03,2.519464e+03
2.598611e+03,2.485671e+03
2.610182e+03,2.480678e+03
2.621752e+03,2.471111e+03
2.633323e+03,2.441975e+03
2.644894e+03,2.425846e+03
2.656465e+03,2.390132e+03
2.668036e+03,2.398034e+03
2.679606e+03,2.381257e+03
2.691177e+03,2.360013e+03
2.702748e+03,2.348386e+03
2.714319e+03,2.311592e+03
2.725890e+03,2.300523e+03
2.737460e+03,2.270373e+03
2.749031e+03,2.268466e+03
2.760602e+03,2.274697e+03
2.772173e+03,2.235243e+03
2.783744e+03,2.223268e+03
2.795314e+03,2.187429e+03
2.806885e+03,2.166995e+03
2.818456e+03,2.173412e+03
2.830027e+03,2.165687e+03
2.841598e+03,2.145520e+03
2.853168e+03,2.142941e+03
2.864739e+03,2.127198e+03
2.876310e+03,2.091153e+03
2.887881e+03,2.091737e+03
2.899452e+03,2.137460e+03
2.911022e+03,2.068971e+03
2.922593e+03,2.049838e+03
2.934164e+03,2.109037e+03
2.945735e+03,2.070238e+03
2.957306e+03,2.032263e+03
2.968876e+03,2.024867e+03
2.980447e+03,2.005261e+03
2.992018e+03,1.980622e+03
3.003589e+03,1.942009e+03
3.015160e+03,1.923542e+03
3.026730e+03,1.981724e+03
3.038301e+03,1.947048e+03
3.049872e+03,1.935626e+03
3.061443e+03,1.984316e+03
3.073014e+03,1.892749e+03
3.084584e+03,1.932890e+03
3.096155e+03,1.925962e+03
3.107726e+03,1.929147e+03
3.119297e+03,1.941057e+03
3.130868e+03,1.927791e+03
3.142438e+03,1.881062e+03
3.154009e+03,1.911505e+03
3.165580e+03,1.902545e+03
3.177151e+03,1.895255e+03
3.188722e+03,1.839127e+03
3.200292e+03,1.924464e+03
3.211863e+03,0.000000e+00
3.223434e+03,0.000000e+00
3.235005e+03,0.000000e+00
3.246576e+03,0.000000e+00
3.258146e+03,0.000000e+00
3.269717e+03,0.000000e+00
3.281288e+03,0.000000e+00
3.292859e+03,0.000000e+00
3.304430e+03,0.000000e+00
3.316000e+03,0.000000e+00
3.327571e+03,0.000000e+00
3.339142e+03,0.000000e+00
3.350713e+03,0.000000e+00
3.362284e+03,0.000000e+00
3.373854e+03,0.000000e+00
3.385425e+03,0.000000e+00
3.396996e+03,0.000000e+00
3.408567e+03,0.000000e+00
3.420138e+03,0.000000e+00
3.431708e+03,0.000000e+00
3.443279e+03,0.000000e+00
3.454850e+03,0.000000e+00
3.466421e+03,0.000000e+00
3.477992e+03,0.000000e+00
3.489563e+03,0.000000e+00
3.500169e+03,0.000000e+00