Folder: Taff_Bargoed_microplastics_data/RAMAN_data/13112023_r1 (part 2)

File: black fibre4.CSV
9.931763e+01,0.000000e+00
1.108884e+02,0.000000e+00
1.224592e+02,0.000000e+00
1.340300e+02,0.000000e+00
1.456008e+02,0.000000e+00
1.571716e+02,0.000000e+00
1.687424e+02,0.000000e+00
1.803132e+02,0.000000e+00
1.918840e+02,0.000000e+00
2.034548e+02,1.052034e+04
2.150256e+02,1.057994e+04
2.265964e+02,1.068749e+04
2.381673e+02,1.083688e+04
2.497381e+02,1.092293e+04
2.613088e+02,1.102010e+04
2.728796e+02,1.114520e+04
2.844504e+02,1.128402e+04
2.960212e+02,1.139113e+04
3.075920e+02,1.148884e+04
3.191628e+02,1.160888e+04
3.307336e+02,1.175929e+04
3.423044e+02,1.189110e+04
3.538752e+02,1.203903e+04
3.654461e+02,1.215143e+04
3.770169e+02,1.231209e+04
3.885877e+02,1.246715e+04
4.001585e+02,1.258653e+04
4.117293e+02,1.267844e+04
4.233001e+02,1.278053e+04
4.348709e+02,1.288537e+04
4.464417e+02,1.298831e+04
4.580125e+02,1.304035e+04
4.695833e+02,1.310159e+04
4.811541e+02,1.314698e+04
4.927249e+02,1.318878e+04
5.042957e+02,1.316454e+04
5.158665e+02,1.315240e+04
5.274373e+02,1.317985e+04
5.390081e+02,1.314591e+04
5.505789e+02,1.312939e+04
5.621497e+02,1.308740e+04
5.737205e+02,1.301971e+04
5.852913e+02,1.300030e+04
5.968621e+02,1.297792e+04
6.084329e+02,1.292408e+04
6.200037e+02,1.286163e+04
6.315745e+02,1.278395e+04
6.431453e+02,1.273241e+04
6.547161e+02,1.268126e+04
6.662869e+02,1.263176e+04
6.778577e+02,1.250997e+04
6.894285e+02,1.243310e+04
7.009993e+02,1.237393e+04
7.125701e+02,1.229692e+04
7.241409e+02,1.226400e+04
7.357117e+02,1.217150e+04
7.472825e+02,1.216208e+04
7.588533e+02,1.203679e+04
7.704241e+02,1.194359e+04
7.819949e+02,1.187176e+04
7.935657e+02,1.187340e+04
8.051365e+02,1.175910e+04
8.167073e+02,1.169690e+04
8.282781e+02,1.168714e+04
8.398489e+02,1.162113e+04
8.514197e+02,1.151002e+04
8.629905e+02,1.139511e+04
8.745613e+02,1.135543e+04
8.861321e+02,1.132621e+04
8.977029e+02,1.123507e+04
9.092737e+02,1.114283e+04
9.208445e+02,1.107041e+04
9.324153e+02,1.103271e+04
9.439861e+02,1.092350e+04
9.555569e+02,1.082402e+04
9.671277e+02,1.078666e+04
9.786985e+02,1.072445e+04
9.902693e+02,1.063315e+04
1.001840e+03,1.057395e+04
1.013411e+03,1.052664e+04
1.024982e+03,1.046652e+04
1.036552e+03,1.042178e+04
1.048123e+03,1.032377e+04
1.059694e+03,1.027857e+04
1.071265e+03,1.025386e+04
1.082836e+03,1.021109e+04
1.094406e+03,1.012283e+04
1.105977e+03,1.008021e+04
1.117548e+03,1.009917e+04
1.129119e+03,1.006368e+04
1.140690e+03,9.970667e+03
1.152261e+03,1.000359e+04
1.163831e+03,9.870155e+03
1.175402e+03,9.786403e+03
1.186973e+03,9.759818e+03
1.198544e+03,9.701303e+03
1.210115e+03,9.665016e+03
1.221685e+03,9.620900e+03
1.233256e+03,9.556071e+03
1.244827e+03,9.573584e+03
1.256398e+03,9.522997e+03
1.267969e+03,9.489280e+03
1.279539e+03,9.485221e+03
1.291110e+03,9.371672e+03
1.302681e+03,9.292905e+03
1.314252e+03,9.223999e+03
1.325823e+03,9.200419e+03
1.337393e+03,9.209094e+03
1.348964e+03,9.175710e+03
1.360535e+03,9.127353e+03
1.372106e+03,9.063451e+03
1.383677e+03,9.005608e+03
1.395247e+03,8.924437e+03
1.406818e+03,8.922053e+03
1.418389e+03,8.857056e+03
1.429960e+03,8.766423e+03
1.441531e+03,8.715752e+03
1.453101e+03,8.645009e+03
1.464672e+03,8.616896e+03
1.476243e+03,8.586223e+03
1.487814e+03,8.571642e+03
1.499385e+03,8.489622e+03
1.510955e+03,8.419175e+03
1.522526e+03,8.369184e+03
1.534097e+03,8.321385e+03
1.545668e+03,8.273789e+03
1.557239e+03,8.256718e+03
1.568809e+03,8.239216e+03
1.580380e+03,8.203983e+03
1.591951e+03,8.146623e+03
1.603522e+03,8.043296e+03
1.615093e+03,7.954144e+03
1.626663e+03,7.914990e+03
1.638234e+03,7.809787e+03
1.649805e+03,7.764117e+03
1.661376e+03,7.678427e+03
1.672947e+03,7.605142e+03
1.684517e+03,7.552693e+03
1.696088e+03,7.510583e+03
1.707659e+03,7.471433e+03
1.719230e+03,7.348581e+03
1.730801e+03,7.319665e+03
1.742371e+03,7.265999e+03
1.753942e+03,7.241597e+03
1.765513e+03,7.183109e+03
1.777084e+03,7.123429e+03
1.788655e+03,7.001116e+03
1.800225e+03,6.982889e+03
1.811796e+03,6.878818e+03
1.823367e+03,6.811320e+03
1.834938e+03,6.766381e+03
1.846509e+03,6.745948e+03
1.858079e+03,6.644816e+03
1.869650e+03,6.550245e+03
1.881221e+03,6.495708e+03
1.892792e+03,6.463458e+03
1.904363e+03,6.385532e+03
1.915933e+03,6.306291e+03
1.927504e+03,6.293369e+03
1.939075e+03,6.183050e+03
1.950646e+03,6.122548e+03
1.962217e+03,6.068594e+03
1.973787e+03,6.001794e+03
1.985358e+03,5.962210e+03
1.996929e+03,5.898226e+03
2.008500e+03,5.822708e+03
2.020071e+03,5.731308e+03
2.031641e+03,5.711275e+03
2.043212e+03,5.626162e+03
2.054783e+03,5.536519e+03
2.066354e+03,5.459867e+03
2.077925e+03,5.423394e+03
2.089496e+03,5.398615e+03
2.101066e+03,5.311808e+03
2.112637e+03,5.261611e+03
2.124208e+03,5.212569e+03
2.135779e+03,5.145060e+03
2.147350e+03,5.040010e+03
2.158920e+03,5.021234e+03
2.170491e+03,4.949152e+03
2.182062e+03,4.902043e+03
2.193633e+03,4.832481e+03
2.205204e+03,4.801218e+03
2.216774e+03,4.727452e+03
2.228345e+03,4.637950e+03
2.239916e+03,4.611307e+03
2.251487e+03,4.577506e+03
2.263058e+03,4.511050e+03
2.274628e+03,4.442491e+03
2.286199e+03,4.380143e+03
2.297770e+03,4.371445e+03
2.309341e+03,4.280628e+03
2.320912e+03,4.250502e+03
2.332482e+03,4.193285e+03
2.344053e+03,4.172310e+03
2.355624e+03,4.123979e+03
2.367195e+03,4.066864e+03
2.378766e+03,4.023140e+03
2.390336e+03,3.972028e+03
2.401907e+03,3.914598e+03
2.413478e+03,3.872378e+03
2.425049e+03,3.833430e+03
2.436620e+03,3.789784e+03
2.448190e+03,3.749188e+03
2.459761e+03,3.708492e+03
2.471332e+03,3.658090e+03
2.482903e+03,3.644147e+03
2.494474e+03,3.594850e+03
2.506044e+03,3.535604e+03
2.517615e+03,3.536463e+03
2.529186e+03,3.492259e+03
2.540757e+03,3.415184e+03
2.552328e+03,3.400659e+03
2.563898e+03,3.382402e+03
2.575469e+03,3.354321e+03
2.587040e+03,3.313439e+03
2.598611e+03,3.263504e+03
2.610182e+03,3.242262e+03
2.621752e+03,3.190957e+03
2.633323e+03,3.179676e+03
2.644894e+03,3.170487e+03
2.656465e+03,3.138428e+03
2.668036e+03,3.112083e+03
2.679606e+03,3.055315e+03
2.691177e+03,3.026400e+03
2.702748e+03,2.981833e+03
2.714319e+03,2.957503e+03
2.725890e+03,2.932962e+03
2.737460e+03,2.936441e+03
2.749031e+03,2.873109e+03
2.760602e+03,2.852327e+03
2.772173e+03,2.829307e+03
2.783744e+03,2.780751e+03
2.795314e+03,2.751977e+03
2.806885e+03,2.745983e+03
2.818456e+03,2.726788e+03
2.830027e+03,2.660902e+03
2.841598e+03,2.681659e+03
2.853168e+03,2.655362e+03
2.864739e+03,2.637540e+03
2.876310e+03,2.631167e+03
2.887881e+03,2.599612e+03
2.899452e+03,2.590464e+03
2.911022e+03,2.606204e+03
2.922593e+03,2.548149e+03
2.934164e+03,2.548762e+03
2.945735e+03,2.536774e+03
2.957306e+03,2.527626e+03
2.968876e+03,2.441302e+03
2.980447e+03,2.426531e+03
2.992018e+03,2.413935e+03
3.003589e+03,2.371026e+03
3.015160e+03,2.365870e+03
3.026730e+03,2.379773e+03
3.038301e+03,2.375359e+03
3.049872e+03,2.345349e+03
3.061443e+03,2.314962e+03
3.073014e+03,2.321224e+03
3.084584e+03,2.290582e+03
3.096155e+03,2.293714e+03
3.107726e+03,2.244300e+03
3.119297e+03,2.294200e+03
3.130868e+03,2.257267e+03
3.142438e+03,2.253317e+03
3.154009e+03,2.243041e+03
3.165580e+03,2.275552e+03
3.177151e+03,2.274917e+03
3.188722e+03,2.273121e+03
3.200292e+03,2.305145e+03
3.211863e+03,0.000000e+00
3.223434e+03,0.000000e+00
3.235005e+03,0.000000e+00
3.246576e+03,0.000000e+00
3.258146e+03,0.000000e+00
3.269717e+03,0.000000e+00
3.281288e+03,0.000000e+00
3.292859e+03,0.000000e+00
3.304430e+03,0.000000e+00
3.316000e+03,0.000000e+00
3.327571e+03,0.000000e+00
3.339142e+03,0.000000e+00
3.350713e+03,0.000000e+00
3.362284e+03,0.000000e+00
3.373854e+03,0.000000e+00
3.385425e+03,0.000000e+00
3.396996e+03,0.000000e+00
3.408567e+03,0.000000e+00
3.420138e+03,0.000000e+00
3.431708e+03,0.000000e+00
3.443279e+03,0.000000e+00
3.454850e+03,0.000000e+00
3.466421e+03,0.000000e+00
3.477992e+03,0.000000e+00
3.489563e+03,0.000000e+00
3.500169e+03,0.000000e+00

File: black fibre5.CSV
9.931763e+01,0.000000e+00
1.108884e+02,0.000000e+00
1.224592e+02,0.000000e+00
1.340300e+02,0.000000e+00
1.456008e+02,0.000000e+00
1.571716e+02,0.000000e+00
1.687424e+02,0.000000e+00
1.803132e+02,0.000000e+00
1.918840e+02,0.000000e+00
2.034548e+02,7.314627e+03
2.150256e+02,7.331599e+03
2.265964e+02,7.346752e+03
2.381673e+02,7.423706e+03
2.497381e+02,7.420735e+03
2.613088e+02,7.477739e+03
2.728796e+02,7.497128e+03
2.844504e+02,7.546025e+03
2.960212e+02,7.543753e+03
3.075920e+02,7.566343e+03
3.191628e+02,7.593470e+03
3.307336e+02,7.627294e+03
3.423044e+02,7.646513e+03
3.538752e+02,7.634396e+03
3.654461e+02,7.609859e+03
3.770169e+02,7.693859e+03
3.885877e+02,7.672780e+03
4.001585e+02,7.653475e+03
4.117293e+02,7.679894e+03
4.233001e+02,7.662611e+03
4.348709e+02,7.687834e+03
4.464417e+02,7.647935e+03
4.580125e+02,7.671046e+03
4.695833e+02,7.648246e+03
4.811541e+02,7.664494e+03
4.927249e+02,7.666675e+03
5.042957e+02,7.619671e+03
5.158665e+02,7.642767e+03
5.274373e+02,7.599372e+03
5.390081e+02,7.584876e+03
5.505789e+02,7.576694e+03
5.621497e+02,7.575899e+03
5.737205e+02,7.517225e+03
5.852913e+02,7.487550e+03
5.968621e+02,7.507794e+03
6.084329e+02,7.517540e+03
6.200037e+02,7.477234e+03
6.315745e+02,7.466641e+03
6.431453e+02,7.429557e+03
6.547161e+02,7.408774e+03
6.662869e+02,7.374071e+03
6.778577e+02,7.378289e+03
6.894285e+02,7.334550e+03
7.009993e+02,7.330561e+03
7.125701e+02,7.291692e+03
7.241409e+02,7.268259e+03
7.357117e+02,7.214169e+03
7.472825e+02,7.219595e+03
7.588533e+02,7.186708e+03
7.704241e+02,7.145569e+03
7.819949e+02,7.154507e+03
7.935657e+02,7.111622e+03
8.051365e+02,7.087572e+03
8.167073e+02,7.003808e+03
8.282781e+02,7.017428e+03
8.398489e+02,6.981703e+03
8.514197e+02,6.942383e+03
8.629905e+02,6.922182e+03
8.745613e+02,6.905354e+03
8.861321e+02,6.857896e+03
8.977029e+02,6.847590e+03
9.092737e+02,6.793577e+03
9.208445e+02,6.735900e+03
9.324153e+02,6.736257e+03
9.439861e+02,6.684101e+03
9.555569e+02,6.642427e+03
9.671277e+02,6.624458e+03
9.786985e+02,6.585615e+03
9.902693e+02,6.566971e+03
1.001840e+03,6.525245e+03
1.013411e+03,6.493759e+03
1.024982e+03,6.455791e+03
1.036552e+03,6.426544e+03
1.048123e+03,6.393635e+03
1.059694e+03,6.381709e+03
1.071265e+03,6.350946e+03
1.082836e+03,6.335412e+03
1.094406e+03,6.305289e+03
1.105977e+03,6.276149e+03
1.117548e+03,6.270527e+03
1.129119e+03,6.230945e+03
1.140690e+03,6.203451e+03
1.152261e+03,6.216135e+03
1.163831e+03,6.156477e+03
1.175402e+03,6.115799e+03
1.186973e+03,6.066475e+03
1.198544e+03,6.052193e+03
1.210115e+03,6.033964e+03
1.221685e+03,6.003983e+03
1.233256e+03,5.967086e+03
1.244827e+03,5.929743e+03
1.256398e+03,5.906235e+03
1.267969e+03,5.892650e+03
1.279539e+03,5.876099e+03
1.291110e+03,5.825366e+03
1.302681e+03,5.770090e+03
1.314252e+03,5.719270e+03
1.325823e+03,5.718398e+03
1.337393e+03,5.714655e+03
1.348964e+03,5.681396e+03
1.360535e+03,5.628606e+03
1.372106e+03,5.606257e+03
1.383677e+03,5.588264e+03
1.395247e+03,5.523461e+03
1.406818e+03,5.493850e+03
1.418389e+03,5.480075e+03
1.429960e+03,5.420146e+03
1.441531e+03,5.364511e+03
1.453101e+03,5.319567e+03
1.464672e+03,5.310653e+03
1.476243e+03,5.291078e+03
1.487814e+03,5.286506e+03
1.499385e+03,5.228337e+03
1.510955e+03,5.172042e+03
1.522526e+03,5.151583e+03
1.534097e+03,5.123212e+03
1.545668e+03,5.091572e+03
1.557239e+03,5.073043e+03
1.568809e+03,5.085235e+03
1.580380e+03,5.049067e+03
1.591951e+03,5.042427e+03
1.603522e+03,4.969122e+03
1.615093e+03,4.911144e+03
1.626663e+03,4.870680e+03
1.638234e+03,4.817819e+03
1.649805e+03,4.783220e+03
1.661376e+03,4.758869e+03
1.672947e+03,4.696604e+03
1.684517e+03,4.692749e+03
1.696088e+03,4.661395e+03
1.707659e+03,4.641944e+03
1.719230e+03,4.588328e+03
1.730801e+03,4.567363e+03
1.742371e+03,4.501085e+03
1.753942e+03,4.498966e+03
1.765513e+03,4.485122e+03
1.777084e+03,4.411525e+03
1.788655e+03,4.406250e+03
1.800225e+03,4.364181e+03
1.811796e+03,4.319320e+03
1.823367e+03,4.272802e+03
1.834938e+03,4.244361e+03
1.846509e+03,4.233028e+03
1.858079e+03,4.214420e+03
1.869650e+03,4.165286e+03
1.881221e+03,4.138068e+03
1.892792e+03,4.104299e+03
1.904363e+03,4.051388e+03
1.915933e+03,4.034819e+03
1.927504e+03,3.979969e+03
1.939075e+03,3.943164e+03
1.950646e+03,3.906586e+03
1.962217e+03,3.868860e+03
1.973787e+03,3.861316e+03
1.985358e+03,3.816500e+03
1.996929e+03,3.773457e+03
2.008500e+03,3.743382e+03
2.020071e+03,3.709422e+03
2.031641e+03,3.666683e+03
2.043212e+03,3.647941e+03
2.054783e+03,3.585040e+03
2.066354e+03,3.559261e+03
2.077925e+03,3.538426e+03
2.089496e+03,3.505392e+03
2.101066e+03,3.477958e+03
2.112637e+03,3.431324e+03
2.124208e+03,3.419104e+03
2.135779e+03,3.376596e+03
2.147350e+03,3.305184e+03
2.158920e+03,3.282379e+03
2.170491e+03,3.252054e+03
2.182062e+03,3.214183e+03
2.193633e+03,3.187007e+03
2.205204e+03,3.173743e+03
2.216774e+03,3.130315e+03
2.228345e+03,3.094478e+03
2.239916e+03,3.035867e+03
2.251487e+03,3.007379e+03
2.263058e+03,3.010584e+03
2.274628e+03,2.952598e+03
2.286199e+03,2.914379e+03
2.297770e+03,2.916586e+03
2.309341e+03,2.837741e+03
2.320912e+03,2.824813e+03
2.332482e+03,2.803777e+03
2.344053e+03,2.784316e+03
2.355624e+03,2.745626e+03
2.367195e+03,2.718493e+03
2.378766e+03,2.682531e+03
2.390336e+03,2.650223e+03
2.401907e+03,2.603662e+03
2.413478e+03,2.608012e+03
2.425049e+03,2.554516e+03
2.436620e+03,2.542335e+03
2.448190e+03,2.530108e+03
2.459761e+03,2.474415e+03
2.471332e+03,2.435057e+03
2.482903e+03,2.418410e+03
2.494474e+03,2.399634e+03
2.506044e+03,2.372472e+03
2.517615e+03,2.353230e+03
2.529186e+03,2.344433e+03
2.540757e+03,2.298768e+03
2.552328e+03,2.279191e+03
2.563898e+03,2.252469e+03
2.575469e+03,2.257203e+03
2.587040e+03,2.214395e+03
2.598611e+03,2.208890e+03
2.610182e+03,2.167828e+03
2.621752e+03,2.135444e+03
2.633323e+03,2.112064e+03
2.644894e+03,2.119701e+03
2.656465e+03,2.086431e+03
2.668036e+03,2.040952e+03
2.679606e+03,2.071875e+03
2.691177e+03,2.041188e+03
2.702748e+03,2.054600e+03
2.714319e+03,1.996998e+03
2.725890e+03,1.961090e+03
2.737460e+03,1.963680e+03
2.749031e+03,1.928242e+03
2.760602e+03,1.896707e+03
2.772173e+03,1.911422e+03
2.783744e+03,1.935872e+03
2.795314e+03,1.875753e+03
2.806885e+03,1.871464e+03
2.818456e+03,1.872214e+03
2.830027e+03,1.825862e+03
2.841598e+03,1.874715e+03
2.853168e+03,1.822895e+03
2.864739e+03,1.817240e+03
2.876310e+03,1.804291e+03
2.887881e+03,1.824800e+03
2.899452e+03,1.796096e+03
2.911022e+03,1.767845e+03
2.922593e+03,1.743677e+03
2.934164e+03,1.718858e+03
2.945735e+03,1.693563e+03
2.957306e+03,1.739677e+03
2.968876e+03,1.682573e+03
2.980447e+03,1.674572e+03
2.992018e+03,1.618098e+03
3.003589e+03,1.627302e+03
3.015160e+03,1.645222e+03
3.026730e+03,1.598385e+03
3.038301e+03,1.585994e+03
3.049872e+03,1.580086e+03
3.061443e+03,1.620320e+03
3.073014e+03,1.564214e+03
3.084584e+03,1.556182e+03
3.096155e+03,1.573765e+03
3.107726e+03,1.516397e+03
3.119297e+03,1.542363e+03
3.130868e+03,1.541172e+03
3.142438e+03,1.526508e+03
3.154009e+03,1.536314e+03
3.165580e+03,1.541045e+03
3.177151e+03,1.571684e+03
3.188722e+03,1.486448e+03
3.200292e+03,1.563070e+03
3.211863e+03,0.000000e+00
3.223434e+03,0.000000e+00
3.235005e+03,0.000000e+00
3.246576e+03,0.000000e+00
3.258146e+03,0.000000e+00
3.269717e+03,0.000000e+00
3.281288e+03,0.000000e+00
3.292859e+03,0.000000e+00
3.304430e+03,0.000000e+00
3.316000e+03,0.000000e+00
3.327571e+03,0.000000e+00
3.339142e+03,0.000000e+00
3.350713e+03,0.000000e+00
3.362284e+03,0.000000e+00
3.373854e+03,0.000000e+00
3.385425e+03,0.000000e+00
3.396996e+03,0.000000e+00
3.408567e+03,0.000000e+00
3.420138e+03,0.000000e+00
3.431708e+03,0.000000e+00
3.443279e+03,0.000000e+00
3.454850e+03,0.000000e+00
3.466421e+03,0.000000e+00
3.477992e+03,0.000000e+00
3.489563e+03,0.000000e+00
3.500169e+03,0.000000e+00

File: black fibre7.CSV
9.931763e+01,0.000000e+00
1.108884e+02,0.000000e+00
1.224592e+02,0.000000e+00
1.340300e+02,0.000000e+00
1.456008e+02,0.000000e+00
1.571716e+02,0.000000e+00
1.687424e+02,0.000000e+00
1.803132e+02,0.000000e+00
1.918840e+02,0.000000e+00
2.034548e+02,6.272838e+03
2.150256e+02,6.320380e+03
2.265964e+02,6.302061e+03
2.381673e+02,6.353616e+03
2.497381e+02,6.353256e+03
2.613088e+02,6.366967e+03
2.728796e+02,6.371021e+03
2.844504e+02,6.400960e+03
2.960212e+02,6.387042e+03
3.075920e+02,6.419688e+03
3.191628e+02,6.421353e+03
3.307336e+02,6.434368e+03
3.423044e+02,6.433354e+03
3.538752e+02,6.417046e+03
3.654461e+02,6.406995e+03
3.770169e+02,6.451382e+03
3.885877e+02,6.415363e+03
4.001585e+02,6.427513e+03
4.117293e+02,6.387875e+03
4.233001e+02,6.395016e+03
4.348709e+02,6.380368e+03
4.464417e+02,6.360741e+03
4.580125e+02,6.347452e+03
4.695833e+02,6.347618e+03
4.811541e+02,6.321675e+03
4.927249e+02,6.313174e+03
5.042957e+02,6.301700e+03
5.158665e+02,6.273854e+03
5.274373e+02,6.258248e+03
5.390081e+02,6.214384e+03
5.505789e+02,6.194834e+03
5.621497e+02,6.192032e+03
5.737205e+02,6.165503e+03
5.852913e+02,6.139521e+03
5.968621e+02,6.120518e+03
6.084329e+02,6.101795e+03
6.200037e+02,6.073523e+03
6.315745e+02,6.050157e+03
6.431453e+02,6.029782e+03
6.547161e+02,6.002977e+03
6.662869e+02,5.997055e+03
6.778577e+02,5.939497e+03
6.894285e+02,5.894745e+03
7.009993e+02,5.890975e+03
7.125701e+02,5.879901e+03
7.241409e+02,5.806611e+03
7.357117e+02,5.798663e+03
7.472825e+02,5.807373e+03
7.588533e+02,5.760419e+03
7.704241e+02,5.705469e+03
7.819949e+02,5.689649e+03
7.935657e+02,5.649067e+03
8.051365e+02,5.631538e+03
8.167073e+02,5.578958e+03
8.282781e+02,5.555782e+03
8.398489e+02,5.548000e+03
8.514197e+02,5.496551e+03
8.629905e+02,5.468524e+03
8.745613e+02,5.430774e+03
8.861321e+02,5.432209e+03
8.977029e+02,5.376970e+03
9.092737e+02,5.332922e+03
9.208445e+02,5.297136e+03
9.324153e+02,5.305290e+03
9.439861e+02,5.251684e+03
9.555569e+02,5.190220e+03
9.671277e+02,5.174622e+03
9.786985e+02,5.176323e+03
9.902693e+02,5.120366e+03
1.001840e+03,5.099155e+03
1.013411e+03,5.067489e+03
1.024982e+03,5.049078e+03
1.036552e+03,5.035246e+03
1.048123e+03,4.984179e+03
1.059694e+03,4.987776e+03
1.071265e+03,4.965189e+03
1.082836e+03,4.907259e+03
1.094406e+03,4.911698e+03
1.105977e+03,4.878317e+03
1.117548e+03,4.875970e+03
1.129119e+03,4.841644e+03
1.140690e+03,4.797104e+03
1.152261e+03,4.797225e+03
1.163831e+03,4.741106e+03
1.175402e+03,4.720825e+03
1.186973e+03,4.680833e+03
1.198544e+03,4.684204e+03
1.210115e+03,4.633978e+03
1.221685e+03,4.627467e+03
1.233256e+03,4.595584e+03
1.244827e+03,4.608986e+03
1.256398e+03,4.570069e+03
1.267969e+03,4.532933e+03
1.279539e+03,4.506238e+03
1.291110e+03,4.502591e+03
1.302681e+03,4.449510e+03
1.314252e+03,4.422295e+03
1.325823e+03,4.388545e+03
1.337393e+03,4.419296e+03
1.348964e+03,4.380491e+03
1.360535e+03,4.345385e+03
1.372106e+03,4.317193e+03
1.383677e+03,4.322159e+03
1.395247e+03,4.272127e+03
1.406818e+03,4.247106e+03
1.418389e+03,4.219144e+03
1.429960e+03,4.183080e+03
1.441531e+03,4.166622e+03
1.453101e+03,4.135889e+03
1.464672e+03,4.109835e+03
1.476243e+03,4.108393e+03
1.487814e+03,4.088605e+03
1.499385e+03,4.051831e+03
1.510955e+03,4.032541e+03
1.522526e+03,4.003274e+03
1.534097e+03,3.974239e+03
1.545668e+03,3.955128e+03
1.557239e+03,3.949570e+03
1.568809e+03,3.935370e+03
1.580380e+03,3.918997e+03
1.591951e+03,3.922631e+03
1.603522e+03,3.862737e+03
1.615093e+03,3.819195e+03
1.626663e+03,3.790656e+03
1.638234e+03,3.743052e+03
1.649805e+03,3.736434e+03
1.661376e+03,3.702282e+03
1.672947e+03,3.684474e+03
1.684517e+03,3.650081e+03
1.696088e+03,3.645955e+03
1.707659e+03,3.610881e+03
1.719230e+03,3.562114e+03
1.730801e+03,3.537851e+03
1.742371e+03,3.530000e+03
1.753942e+03,3.498750e+03
1.765513e+03,3.471985e+03
1.777084e+03,3.458655e+03
1.788655e+03,3.432676e+03
1.800225e+03,3.425046e+03
1.811796e+03,3.362010e+03
1.823367e+03,3.333589e+03
1.834938e+03,3.315206e+03
1.846509e+03,3.312511e+03
1.858079e+03,3.275461e+03
1.869650e+03,3.219416e+03
1.881221e+03,3.210970e+03
1.892792e+03,3.192457e+03
1.904363e+03,3.173469e+03
1.915933e+03,3.134067e+03
1.927504e+03,3.114215e+03
1.939075e+03,3.072586e+03
1.950646e+03,3.043420e+03
1.962217e+03,3.009962e+03
1.973787e+03,3.002114e+03
1.985358e+03,2.961474e+03
1.996929e+03,2.945004e+03
2.008500e+03,2.902656e+03
2.020071e+03,2.884087e+03
2.031641e+03,2.859958e+03
2.043212e+03,2.807026e+03
2.054783e+03,2.784015e+03
2.066354e+03,2.790603e+03
2.077925e+03,2.754111e+03
2.089496e+03,2.730915e+03
2.101066e+03,2.700126e+03
2.112637e+03,2.644650e+03
2.124208e+03,2.666338e+03
2.135779e+03,2.610398e+03
2.147350e+03,2.581569e+03
2.158920e+03,2.554203e+03
2.170491e+03,2.514944e+03
2.182062e+03,2.513893e+03
2.193633e+03,2.472132e+03
2.205204e+03,2.465047e+03
2.216774e+03,2.427333e+03
2.228345e+03,2.400584e+03
2.239916e+03,2.371906e+03
2.251487e+03,2.327449e+03
2.263058e+03,2.327094e+03
2.274628e+03,2.307632e+03
2.286199e+03,2.254879e+03
2.297770e+03,2.265388e+03
2.309341e+03,2.210254e+03
2.320912e+03,2.198518e+03
2.332482e+03,2.149021e+03
2.344053e+03,2.155575e+03
2.355624e+03,2.097610e+03
2.367195e+03,2.098988e+03
2.378766e+03,2.070520e+03
2.390336e+03,2.046331e+03
2.401907e+03,2.014126e+03
2.413478e+03,1.991766e+03
2.425049e+03,2.001248e+03
2.436620e+03,1.971487e+03
2.448190e+03,1.948236e+03
2.459761e+03,1.930583e+03
2.471332e+03,1.896735e+03
2.482903e+03,1.885546e+03
2.494474e+03,1.864941e+03
2.506044e+03,1.839384e+03
2.517615e+03,1.816181e+03
2.529186e+03,1.816317e+03
2.540757e+03,1.774151e+03
2.552328e+03,1.782152e+03
2.563898e+03,1.765654e+03
2.575469e+03,1.746754e+03
2.587040e+03,1.735075e+03
2.598611e+03,1.703736e+03
2.610182e+03,1.695743e+03
2.621752e+03,1.680624e+03
2.633323e+03,1.673598e+03
2.644894e+03,1.659427e+03
2.656465e+03,1.646614e+03
2.668036e+03,1.634195e+03
2.679606e+03,1.617508e+03
2.691177e+03,1.592699e+03
2.702748e+03,1.567148e+03
2.714319e+03,1.556053e+03
2.725890e+03,1.556266e+03
2.737460e+03,1.529654e+03
2.749031e+03,1.515246e+03
2.760602e+03,1.512505e+03
2.772173e+03,1.492273e+03
2.783744e+03,1.451777e+03
2.795314e+03,1.457079e+03
2.806885e+03,1.467661e+03
2.818456e+03,1.441003e+03
2.830027e+03,1.446184e+03
2.841598e+03,1.415988e+03
2.853168e+03,1.440427e+03
2.864739e+03,1.416595e+03
2.876310e+03,1.428997e+03
2.887881e+03,1.404961e+03
2.899452e+03,1.407429e+03
2.911022e+03,1.377718e+03
2.922593e+03,1.374037e+03
2.934164e+03,1.334224e+03
2.945735e+03,1.362424e+03
2.957306e+03,1.395129e+03
2.968876e+03,1.327650e+03
2.980447e+03,1.329208e+03
2.992018e+03,1.341695e+03
3.003589e+03,1.283071e+03
3.015160e+03,1.300711e+03
3.026730e+03,1.285639e+03
3.038301e+03,1.290685e+03
3.049872e+03,1.250946e+03
3.061443e+03,1.296068e+03
3.073014e+03,1.223443e+03
3.084584e+03,1.216911e+03
3.096155e+03,1.244420e+03
3.107726e+03,1.217877e+03
3.119297e+03,1.226188e+03
3.130868e+03,1.229123e+03
3.142438e+03,1.239607e+03
3.154009e+03,1.214105e+03
3.165580e+03,1.256522e+03
3.177151e+03,1.263698e+03
3.188722e+03,1.235384e+03
3.200292e+03,1.250598e+03
3.211863e+03,0.000000e+00
3.223434e+03,0.000000e+00
3.235005e+03,0.000000e+00
3.246576e+03,0.000000e+00
3.258146e+03,0.000000e+00
3.269717e+03,0.000000e+00
3.281288e+03,0.000000e+00
3.292859e+03,0.000000e+00
3.304430e+03,0.000000e+00
3.316000e+03,0.000000e+00
3.327571e+03,0.000000e+00
3.339142e+03,0.000000e+00
3.350713e+03,0.000000e+00
3.362284e+03,0.000000e+00
3.373854e+03,0.000000e+00
3.385425e+03,0.000000e+00
3.396996e+03,0.000000e+00
3.408567e+03,0.000000e+00
3.420138e+03,0.000000e+00
3.431708e+03,0.000000e+00
3.443279e+03,0.000000e+00
3.454850e+03,0.000000e+00
3.466421e+03,0.000000e+00
3.477992e+03,0.000000e+00
3.489563e+03,0.000000e+00
3.500169e+03,0.000000e+00