Folder: Taff_Bargoed_microplastics_data/RAMAN_data/13112023_r1 (part 4)

File: blue fibre3.CSV
9.931763e+01,0.000000e+00
1.108884e+02,0.000000e+00
1.224592e+02,0.000000e+00
1.340300e+02,0.000000e+00
1.456008e+02,0.000000e+00
1.571716e+02,0.000000e+00
1.687424e+02,0.000000e+00
1.803132e+02,0.000000e+00
1.918840e+02,0.000000e+00
2.034548e+02,1.282428e+03
2.150256e+02,1.280211e+03
2.265964e+02,1.272519e+03
2.381673e+02,1.278008e+03
2.497381e+02,1.280867e+03
2.613088e+02,1.281855e+03
2.728796e+02,1.284451e+03
2.844504e+02,1.282964e+03
2.960212e+02,1.280473e+03
3.075920e+02,1.286778e+03
3.191628e+02,1.275515e+03
3.307336e+02,1.289970e+03
3.423044e+02,1.281751e+03
3.538752e+02,1.282809e+03
3.654461e+02,1.279898e+03
3.770169e+02,1.295980e+03
3.885877e+02,1.272200e+03
4.001585e+02,1.262435e+03
4.117293e+02,1.250040e+03
4.233001e+02,1.246871e+03
4.348709e+02,1.244589e+03
4.464417e+02,1.240531e+03
4.580125e+02,1.232201e+03
4.695833e+02,1.230721e+03
4.811541e+02,1.213497e+03
4.927249e+02,1.210657e+03
5.042957e+02,1.200831e+03
5.158665e+02,1.209445e+03
5.274373e+02,1.195869e+03
5.390081e+02,1.183797e+03
5.505789e+02,1.177977e+03
5.621497e+02,1.172332e+03
5.737205e+02,1.159991e+03
5.852913e+02,1.144918e+03
5.968621e+02,1.152108e+03
6.084329e+02,1.136036e+03
6.200037e+02,1.123412e+03
6.315745e+02,1.132115e+03
6.431453e+02,1.112586e+03
6.547161e+02,1.102270e+03
6.662869e+02,1.089211e+03
6.778577e+02,1.092865e+03
6.894285e+02,1.082516e+03
7.009993e+02,1.081943e+03
7.125701e+02,1.061553e+03
7.241409e+02,1.060059e+03
7.357117e+02,1.044660e+03
7.472825e+02,1.034266e+03
7.588533e+02,1.029821e+03
7.704241e+02,1.017812e+03
7.819949e+02,1.028292e+03
7.935657e+02,1.013336e+03
8.051365e+02,9.958126e+02
8.167073e+02,9.884724e+02
8.282781e+02,9.697870e+02
8.398489e+02,9.727118e+02
8.514197e+02,9.628187e+02
8.629905e+02,9.600914e+02
8.745613e+02,9.541597e+02
8.861321e+02,9.528937e+02
8.977029e+02,9.509316e+02
9.092737e+02,9.274808e+02
9.208445e+02,9.215731e+02
9.324153e+02,9.038319e+02
9.439861e+02,9.021282e+02
9.555569e+02,8.944874e+02
9.671277e+02,8.876648e+02
9.786985e+02,8.765773e+02
9.902693e+02,8.803934e+02
1.001840e+03,8.719257e+02
1.013411e+03,8.609619e+02
1.024982e+03,8.553057e+02
1.036552e+03,8.565561e+02
1.048123e+03,8.446826e+02
1.059694e+03,8.423638e+02
1.071265e+03,8.324163e+02
1.082836e+03,8.303749e+02
1.094406e+03,8.401968e+02
1.105977e+03,8.243083e+02
1.117548e+03,8.329019e+02
1.129119e+03,8.224490e+02
1.140690e+03,8.088746e+02
1.152261e+03,8.063005e+02
1.163831e+03,7.885256e+02
1.175402e+03,7.901759e+02
1.186973e+03,7.835712e+02
1.198544e+03,7.738240e+02
1.210115e+03,7.731768e+02
1.221685e+03,7.644668e+02
1.233256e+03,7.668151e+02
1.244827e+03,7.666566e+02
1.256398e+03,7.606244e+02
1.267969e+03,7.477936e+02
1.279539e+03,7.434958e+02
1.291110e+03,7.508961e+02
1.302681e+03,7.403033e+02
1.314252e+03,7.429273e+02
1.325823e+03,7.539515e+02
1.337393e+03,7.355590e+02
1.348964e+03,7.291017e+02
1.360535e+03,7.276182e+02
1.372106e+03,7.316772e+02
1.383677e+03,7.216691e+02
1.395247e+03,7.118682e+02
1.406818e+03,7.085139e+02
1.418389e+03,6.988181e+02
1.429960e+03,6.921324e+02
1.441531e+03,6.912708e+02
1.453101e+03,6.845419e+02
1.464672e+03,6.842882e+02
1.476243e+03,6.750186e+02
1.487814e+03,6.685080e+02
1.499385e+03,6.657186e+02
1.510955e+03,6.614916e+02
1.522526e+03,6.513877e+02
1.534097e+03,6.492109e+02
1.545668e+03,6.478768e+02
1.557239e+03,6.405950e+02
1.568809e+03,6.424223e+02
1.580380e+03,6.309301e+02
1.591951e+03,6.303650e+02
1.603522e+03,6.276990e+02
1.615093e+03,6.236708e+02
1.626663e+03,6.199650e+02
1.638234e+03,6.118232e+02
1.649805e+03,5.977900e+02
1.661376e+03,6.011487e+02
1.672947e+03,5.936789e+02
1.684517e+03,5.889338e+02
1.696088e+03,5.831242e+02
1.707659e+03,5.820016e+02
1.719230e+03,5.660479e+02
1.730801e+03,5.695355e+02
1.742371e+03,5.636042e+02
1.753942e+03,5.528641e+02
1.765513e+03,5.453563e+02
1.777084e+03,5.476422e+02
1.788655e+03,5.413080e+02
1.800225e+03,5.367369e+02
1.811796e+03,5.354060e+02
1.823367e+03,5.223146e+02
1.834938e+03,5.159614e+02
1.846509e+03,5.098969e+02
1.858079e+03,5.094509e+02
1.869650e+03,4.990735e+02
1.881221e+03,4.933056e+02
1.892792e+03,4.882466e+02
1.904363e+03,4.766807e+02
1.915933e+03,4.787852e+02
1.927504e+03,4.734184e+02
1.939075e+03,4.762744e+02
1.950646e+03,4.561475e+02
1.962217e+03,4.557299e+02
1.973787e+03,4.441642e+02
1.985358e+03,4.470912e+02
1.996929e+03,4.386278e+02
2.008500e+03,4.378353e+02
2.020071e+03,4.252813e+02
2.031641e+03,4.287618e+02
2.043212e+03,4.156456e+02
2.054783e+03,4.104751e+02
2.066354e+03,3.997609e+02
2.077925e+03,3.943623e+02
2.089496e+03,3.957148e+02
2.101066e+03,3.882550e+02
2.112637e+03,3.829838e+02
2.124208e+03,3.784946e+02
2.135779e+03,3.761046e+02
2.147350e+03,3.639636e+02
2.158920e+03,3.586387e+02
2.170491e+03,3.594256e+02
2.182062e+03,3.554931e+02
2.193633e+03,3.464980e+02
2.205204e+03,3.518267e+02
2.216774e+03,3.438652e+02
2.228345e+03,3.504616e+02
2.239916e+03,3.341041e+02
2.251487e+03,3.257824e+02
2.263058e+03,3.205456e+02
2.274628e+03,3.171021e+02
2.286199e+03,3.137809e+02
2.297770e+03,3.052456e+02
2.309341e+03,3.069767e+02
2.320912e+03,3.062400e+02
2.332482e+03,2.936738e+02
2.344053e+03,2.962503e+02
2.355624e+03,2.902400e+02
2.367195e+03,2.901704e+02
2.378766e+03,2.814644e+02
2.390336e+03,2.788318e+02
2.401907e+03,2.745854e+02
2.413478e+03,2.735528e+02
2.425049e+03,2.680105e+02
2.436620e+03,2.640503e+02
2.448190e+03,2.605804e+02
2.459761e+03,2.557981e+02
2.471332e+03,2.565672e+02
2.482903e+03,2.606688e+02
2.494474e+03,2.481305e+02
2.506044e+03,2.505347e+02
2.517615e+03,2.456010e+02
2.529186e+03,2.365721e+02
2.540757e+03,2.349529e+02
2.552328e+03,2.466989e+02
2.563898e+03,2.400648e+02
2.575469e+03,2.449443e+02
2.587040e+03,2.195550e+02
2.598611e+03,2.302845e+02
2.610182e+03,2.237135e+02
2.621752e+03,2.273458e+02
2.633323e+03,2.097495e+02
2.644894e+03,2.213788e+02
2.656465e+03,2.271848e+02
2.668036e+03,2.185419e+02
2.679606e+03,2.124403e+02
2.691177e+03,2.040722e+02
2.702748e+03,2.077195e+02
2.714319e+03,2.091236e+02
2.725890e+03,2.199581e+02
2.737460e+03,2.063092e+02
2.749031e+03,2.100689e+02
2.760602e+03,2.082867e+02
2.772173e+03,2.045117e+02
2.783744e+03,2.002796e+02
2.795314e+03,1.889711e+02
2.806885e+03,2.010337e+02
2.818456e+03,1.949421e+02
2.830027e+03,1.986139e+02
2.841598e+03,1.966171e+02
2.853168e+03,2.044026e+02
2.864739e+03,2.036329e+02
2.876310e+03,2.095470e+02
2.887881e+03,2.121571e+02
2.899452e+03,2.040331e+02
2.911022e+03,1.972319e+02
2.922593e+03,2.022881e+02
2.934164e+03,1.886815e+02
2.945735e+03,2.021600e+02
2.957306e+03,2.407208e+02
2.968876e+03,1.850100e+02
2.980447e+03,1.801210e+02
2.992018e+03,1.872207e+02
3.003589e+03,1.661993e+02
3.015160e+03,1.738585e+02
3.026730e+03,1.593844e+02
3.038301e+03,1.873780e+02
3.049872e+03,1.625683e+02
3.061443e+03,1.784000e+02
3.073014e+03,1.567883e+02
3.084584e+03,1.812704e+02
3.096155e+03,1.682767e+02
3.107726e+03,1.670830e+02
3.119297e+03,1.877501e+02
3.130868e+03,1.741134e+02
3.142438e+03,1.921051e+02
3.154009e+03,1.645191e+02
3.165580e+03,1.804049e+02
3.177151e+03,2.016787e+02
3.188722e+03,1.641424e+02
3.200292e+03,2.228870e+02
3.211863e+03,0.000000e+00
3.223434e+03,0.000000e+00
3.235005e+03,0.000000e+00
3.246576e+03,0.000000e+00
3.258146e+03,0.000000e+00
3.269717e+03,0.000000e+00
3.281288e+03,0.000000e+00
3.292859e+03,0.000000e+00
3.304430e+03,0.000000e+00
3.316000e+03,0.000000e+00
3.327571e+03,0.000000e+00
3.339142e+03,0.000000e+00
3.350713e+03,0.000000e+00
3.362284e+03,0.000000e+00
3.373854e+03,0.000000e+00
3.385425e+03,0.000000e+00
3.396996e+03,0.000000e+00
3.408567e+03,0.000000e+00
3.420138e+03,0.000000e+00
3.431708e+03,0.000000e+00
3.443279e+03,0.000000e+00
3.454850e+03,0.000000e+00
3.466421e+03,0.000000e+00
3.477992e+03,0.000000e+00
3.489563e+03,0.000000e+00
3.500169e+03,0.000000e+00

File: blue fibre4.CSV
9.931763e+01,0.000000e+00
1.108884e+02,0.000000e+00
1.224592e+02,0.000000e+00
1.340300e+02,0.000000e+00
1.456008e+02,0.000000e+00
1.571716e+02,0.000000e+00
1.687424e+02,0.000000e+00
1.803132e+02,0.000000e+00
1.918840e+02,0.000000e+00
2.034548e+02,4.933383e+03
2.150256e+02,4.957106e+03
2.265964e+02,4.971142e+03
2.381673e+02,5.016872e+03
2.497381e+02,5.035874e+03
2.613088e+02,5.041242e+03
2.728796e+02,5.085931e+03
2.844504e+02,5.097512e+03
2.960212e+02,5.093764e+03
3.075920e+02,5.124826e+03
3.191628e+02,5.132072e+03
3.307336e+02,5.157320e+03
3.423044e+02,5.145195e+03
3.538752e+02,5.144838e+03
3.654461e+02,5.160124e+03
3.770169e+02,5.186973e+03
3.885877e+02,5.144369e+03
4.001585e+02,5.126442e+03
4.117293e+02,5.154263e+03
4.233001e+02,5.141989e+03
4.348709e+02,5.133397e+03
4.464417e+02,5.155370e+03
4.580125e+02,5.138558e+03
4.695833e+02,5.086250e+03
4.811541e+02,5.108417e+03
4.927249e+02,5.112581e+03
5.042957e+02,5.082833e+03
5.158665e+02,5.074117e+03
5.274373e+02,5.053816e+03
5.390081e+02,5.027227e+03
5.505789e+02,5.038039e+03
5.621497e+02,5.024281e+03
5.737205e+02,4.989690e+03
5.852913e+02,4.971373e+03
5.968621e+02,4.945117e+03
6.084329e+02,4.957813e+03
6.200037e+02,4.919459e+03
6.315745e+02,4.897807e+03
6.431453e+02,4.890563e+03
6.547161e+02,4.874653e+03
6.662869e+02,4.843254e+03
6.778577e+02,4.807422e+03
6.894285e+02,4.801404e+03
7.009993e+02,4.787589e+03
7.125701e+02,4.736466e+03
7.241409e+02,4.745062e+03
7.357117e+02,4.718475e+03
7.472825e+02,4.694947e+03
7.588533e+02,4.661700e+03
7.704241e+02,4.639201e+03
7.819949e+02,4.626416e+03
7.935657e+02,4.579131e+03
8.051365e+02,4.583345e+03
8.167073e+02,4.554417e+03
8.282781e+02,4.530895e+03
8.398489e+02,4.527882e+03
8.514197e+02,4.483703e+03
8.629905e+02,4.442795e+03
8.745613e+02,4.422630e+03
8.861321e+02,4.414668e+03
8.977029e+02,4.356919e+03
9.092737e+02,4.328271e+03
9.208445e+02,4.299972e+03
9.324153e+02,4.286875e+03
9.439861e+02,4.268327e+03
9.555569e+02,4.225485e+03
9.671277e+02,4.210237e+03
9.786985e+02,4.192933e+03
9.902693e+02,4.146628e+03
1.001840e+03,4.110491e+03
1.013411e+03,4.090097e+03
1.024982e+03,4.078439e+03
1.036552e+03,4.057376e+03
1.048123e+03,4.023115e+03
1.059694e+03,3.984652e+03
1.071265e+03,3.993721e+03
1.082836e+03,3.970629e+03
1.094406e+03,3.963766e+03
1.105977e+03,3.930532e+03
1.117548e+03,3.900176e+03
1.129119e+03,3.867691e+03
1.140690e+03,3.842222e+03
1.152261e+03,3.820432e+03
1.163831e+03,3.771247e+03
1.175402e+03,3.740611e+03
1.186973e+03,3.714635e+03
1.198544e+03,3.719940e+03
1.210115e+03,3.683382e+03
1.221685e+03,3.639516e+03
1.233256e+03,3.596846e+03
1.244827e+03,3.584726e+03
1.256398e+03,3.589758e+03
1.267969e+03,3.552985e+03
1.279539e+03,3.530832e+03
1.291110e+03,3.534939e+03
1.302681e+03,3.498191e+03
1.314252e+03,3.469265e+03
1.325823e+03,3.457760e+03
1.337393e+03,3.449874e+03
1.348964e+03,3.410931e+03
1.360535e+03,3.375806e+03
1.372106e+03,3.354000e+03
1.383677e+03,3.332968e+03
1.395247e+03,3.307414e+03
1.406818e+03,3.286180e+03
1.418389e+03,3.270411e+03
1.429960e+03,3.232889e+03
1.441531e+03,3.214948e+03
1.453101e+03,3.162190e+03
1.464672e+03,3.178110e+03
1.476243e+03,3.143618e+03
1.487814e+03,3.128654e+03
1.499385e+03,3.104450e+03
1.510955e+03,3.074865e+03
1.522526e+03,3.052890e+03
1.534097e+03,3.029971e+03
1.545668e+03,3.000097e+03
1.557239e+03,3.012031e+03
1.568809e+03,3.001423e+03
1.580380e+03,2.969774e+03
1.591951e+03,2.947915e+03
1.603522e+03,2.936555e+03
1.615093e+03,2.905000e+03
1.626663e+03,2.887836e+03
1.638234e+03,2.856542e+03
1.649805e+03,2.837084e+03
1.661376e+03,2.805524e+03
1.672947e+03,2.791450e+03
1.684517e+03,2.748035e+03
1.696088e+03,2.743783e+03
1.707659e+03,2.708427e+03
1.719230e+03,2.700128e+03
1.730801e+03,2.702680e+03
1.742371e+03,2.669099e+03
1.753942e+03,2.654668e+03
1.765513e+03,2.643790e+03
1.777084e+03,2.611300e+03
1.788655e+03,2.586752e+03
1.800225e+03,2.572804e+03
1.811796e+03,2.566785e+03
1.823367e+03,2.521191e+03
1.834938e+03,2.517594e+03
1.846509e+03,2.504604e+03
1.858079e+03,2.472364e+03
1.869650e+03,2.455706e+03
1.881221e+03,2.406879e+03
1.892792e+03,2.414513e+03
1.904363e+03,2.400882e+03
1.915933e+03,2.374119e+03
1.927504e+03,2.358572e+03
1.939075e+03,2.324648e+03
1.950646e+03,2.280937e+03
1.962217e+03,2.294239e+03
1.973787e+03,2.249884e+03
1.985358e+03,2.260337e+03
1.996929e+03,2.199577e+03
2.008500e+03,2.196867e+03
2.020071e+03,2.183605e+03
2.031641e+03,2.154862e+03
2.043212e+03,2.111594e+03
2.054783e+03,2.102648e+03
2.066354e+03,2.084921e+03
2.077925e+03,2.054371e+03
2.089496e+03,2.040114e+03
2.101066e+03,2.026424e+03
2.112637e+03,1.990481e+03
2.124208e+03,1.987301e+03
2.135779e+03,1.973928e+03
2.147350e+03,1.917885e+03
2.158920e+03,1.891583e+03
2.170491e+03,1.873343e+03
2.182062e+03,1.845966e+03
2.193633e+03,1.849689e+03
2.205204e+03,1.820440e+03
2.216774e+03,1.797898e+03
2.228345e+03,1.775680e+03
2.239916e+03,1.736941e+03
2.251487e+03,1.758183e+03
2.263058e+03,1.699533e+03
2.274628e+03,1.688848e+03
2.286199e+03,1.657412e+03
2.297770e+03,1.655474e+03
2.309341e+03,1.623017e+03
2.320912e+03,1.597543e+03
2.332482e+03,1.575798e+03
2.344053e+03,1.568744e+03
2.355624e+03,1.543535e+03
2.367195e+03,1.536639e+03
2.378766e+03,1.500259e+03
2.390336e+03,1.478695e+03
2.401907e+03,1.462633e+03
2.413478e+03,1.443561e+03
2.425049e+03,1.424669e+03
2.436620e+03,1.406338e+03
2.448190e+03,1.396011e+03
2.459761e+03,1.366896e+03
2.471332e+03,1.365990e+03
2.482903e+03,1.361153e+03
2.494474e+03,1.328320e+03
2.506044e+03,1.304236e+03
2.517615e+03,1.305049e+03
2.529186e+03,1.286537e+03
2.540757e+03,1.278494e+03
2.552328e+03,1.271868e+03
2.563898e+03,1.252844e+03
2.575469e+03,1.247440e+03
2.587040e+03,1.211733e+03
2.598611e+03,1.187803e+03
2.610182e+03,1.180042e+03
2.621752e+03,1.189328e+03
2.633323e+03,1.175388e+03
2.644894e+03,1.157933e+03
2.656465e+03,1.149003e+03
2.668036e+03,1.127121e+03
2.679606e+03,1.121335e+03
2.691177e+03,1.111352e+03
2.702748e+03,1.106056e+03
2.714319e+03,1.091634e+03
2.725890e+03,1.099238e+03
2.737460e+03,1.087469e+03
2.749031e+03,1.066373e+03
2.760602e+03,1.070234e+03
2.772173e+03,1.054008e+03
2.783744e+03,1.028632e+03
2.795314e+03,1.001704e+03
2.806885e+03,1.011930e+03
2.818456e+03,9.859887e+02
2.830027e+03,9.911981e+02
2.841598e+03,9.942631e+02
2.853168e+03,1.009846e+03
2.864739e+03,9.873961e+02
2.876310e+03,9.994700e+02
2.887881e+03,9.686375e+02
2.899452e+03,9.833643e+02
2.911022e+03,9.722516e+02
2.922593e+03,9.655026e+02
2.934164e+03,9.533152e+02
2.945735e+03,9.397158e+02
2.957306e+03,1.012361e+03
2.968876e+03,9.381785e+02
2.980447e+03,9.148071e+02
2.992018e+03,8.957878e+02
3.003589e+03,8.855948e+02
3.015160e+03,8.831800e+02
3.026730e+03,8.622798e+02
3.038301e+03,8.672205e+02
3.049872e+03,8.779254e+02
3.061443e+03,9.029862e+02
3.073014e+03,8.515899e+02
3.084584e+03,8.441127e+02
3.096155e+03,8.779830e+02
3.107726e+03,8.666450e+02
3.119297e+03,8.689332e+02
3.130868e+03,8.577155e+02
3.142438e+03,8.582721e+02
3.154009e+03,8.698541e+02
3.165580e+03,8.508484e+02
3.177151e+03,8.463196e+02
3.188722e+03,8.795449e+02
3.200292e+03,8.749597e+02
3.211863e+03,0.000000e+00
3.223434e+03,0.000000e+00
3.235005e+03,0.000000e+00
3.246576e+03,0.000000e+00
3.258146e+03,0.000000e+00
3.269717e+03,0.000000e+00
3.281288e+03,0.000000e+00
3.292859e+03,0.000000e+00
3.304430e+03,0.000000e+00
3.316000e+03,0.000000e+00
3.327571e+03,0.000000e+00
3.339142e+03,0.000000e+00
3.350713e+03,0.000000e+00
3.362284e+03,0.000000e+00
3.373854e+03,0.000000e+00
3.385425e+03,0.000000e+00
3.396996e+03,0.000000e+00
3.408567e+03,0.000000e+00
3.420138e+03,0.000000e+00
3.431708e+03,0.000000e+00
3.443279e+03,0.000000e+00
3.454850e+03,0.000000e+00
3.466421e+03,0.000000e+00
3.477992e+03,0.000000e+00
3.489563e+03,0.000000e+00
3.500169e+03,0.000000e+00

File: blue fibre6.CSV
9.931763e+01,0.000000e+00
1.108884e+02,0.000000e+00
1.224592e+02,0.000000e+00
1.340300e+02,0.000000e+00
1.456008e+02,0.000000e+00
1.571716e+02,0.000000e+00
1.687424e+02,0.000000e+00
1.803132e+02,0.000000e+00
1.918840e+02,0.000000e+00
2.034548e+02,3.097786e+03
2.150256e+02,3.076555e+03
2.265964e+02,3.128347e+03
2.381673e+02,3.137034e+03
2.497381e+02,3.193086e+03
2.613088e+02,3.195457e+03
2.728796e+02,3.203101e+03
2.844504e+02,3.224590e+03
2.960212e+02,3.230206e+03
3.075920e+02,3.234311e+03
3.191628e+02,3.268460e+03
3.307336e+02,3.276478e+03
3.423044e+02,3.286847e+03
3.538752e+02,3.301578e+03
3.654461e+02,3.302597e+03
3.770169e+02,3.321737e+03
3.885877e+02,3.331757e+03
4.001585e+02,3.325621e+03
4.117293e+02,3.329438e+03
4.233001e+02,3.333916e+03
4.348709e+02,3.348177e+03
4.464417e+02,3.375825e+03
4.580125e+02,3.360115e+03
4.695833e+02,3.376428e+03
4.811541e+02,3.432801e+03
4.927249e+02,3.385998e+03
5.042957e+02,3.378345e+03
5.158665e+02,3.390021e+03
5.274373e+02,3.406398e+03
5.390081e+02,3.357125e+03
5.505789e+02,3.379742e+03
5.621497e+02,3.405387e+03
5.737205e+02,3.381169e+03
5.852913e+02,3.413489e+03
5.968621e+02,3.401513e+03
6.084329e+02,3.377801e+03
6.200037e+02,3.384950e+03
6.315745e+02,3.383656e+03
6.431453e+02,3.371478e+03
6.547161e+02,3.368926e+03
6.662869e+02,3.382767e+03
6.778577e+02,3.521731e+03
6.894285e+02,3.372011e+03
7.009993e+02,3.390878e+03
7.125701e+02,3.395125e+03
7.241409e+02,3.365386e+03
7.357117e+02,3.357455e+03
7.472825e+02,3.458706e+03
7.588533e+02,3.349843e+03
7.704241e+02,3.321278e+03
7.819949e+02,3.360083e+03
7.935657e+02,3.333606e+03
8.051365e+02,3.333158e+03
8.167073e+02,3.312625e+03
8.282781e+02,3.337696e+03
8.398489e+02,3.317676e+03
8.514197e+02,3.298452e+03
8.629905e+02,3.285492e+03
8.745613e+02,3.270056e+03
8.861321e+02,3.249015e+03
8.977029e+02,3.225327e+03
9.092737e+02,3.216487e+03
9.208445e+02,3.205114e+03
9.324153e+02,3.212931e+03
9.439861e+02,3.196156e+03
9.555569e+02,3.210711e+03
9.671277e+02,3.180243e+03
9.786985e+02,3.150181e+03
9.902693e+02,3.140290e+03
1.001840e+03,3.131685e+03
1.013411e+03,3.113092e+03
1.024982e+03,3.115270e+03
1.036552e+03,3.090333e+03
1.048123e+03,3.072634e+03
1.059694e+03,3.067313e+03
1.071265e+03,3.061850e+03
1.082836e+03,3.048989e+03
1.094406e+03,3.028494e+03
1.105977e+03,3.049940e+03
1.117548e+03,3.012449e+03
1.129119e+03,2.999206e+03
1.140690e+03,3.048080e+03
1.152261e+03,2.977840e+03
1.163831e+03,2.974715e+03
1.175402e+03,2.937760e+03
1.186973e+03,2.937145e+03
1.198544e+03,2.923596e+03
1.210115e+03,2.918223e+03
1.221685e+03,2.874806e+03
1.233256e+03,2.856101e+03
1.244827e+03,2.826225e+03
1.256398e+03,2.794544e+03
1.267969e+03,2.786981e+03
1.279539e+03,2.782130e+03
1.291110e+03,2.789803e+03
1.302681e+03,2.811096e+03
1.314252e+03,2.753239e+03
1.325823e+03,2.764046e+03
1.337393e+03,2.867461e+03
1.348964e+03,2.705945e+03
1.360535e+03,2.667423e+03
1.372106e+03,2.673531e+03
1.383677e+03,2.651260e+03
1.395247e+03,2.627061e+03
1.406818e+03,2.630130e+03
1.418389e+03,2.603079e+03
1.429960e+03,2.593754e+03
1.441531e+03,2.592963e+03
1.453101e+03,2.564485e+03
1.464672e+03,2.551851e+03
1.476243e+03,2.528887e+03
1.487814e+03,2.526961e+03
1.499385e+03,2.508090e+03
1.510955e+03,2.495302e+03
1.522526e+03,2.696633e+03
1.534097e+03,2.493851e+03
1.545668e+03,2.456609e+03
1.557239e+03,2.438402e+03
1.568809e+03,2.430209e+03
1.580380e+03,2.429181e+03
1.591951e+03,2.398364e+03
1.603522e+03,2.393878e+03
1.615093e+03,2.375981e+03
1.626663e+03,2.354043e+03
1.638234e+03,2.327192e+03
1.649805e+03,2.337738e+03
1.661376e+03,2.310836e+03
1.672947e+03,2.304693e+03
1.684517e+03,2.289862e+03
1.696088e+03,2.284677e+03
1.707659e+03,2.249959e+03
1.719230e+03,2.268777e+03
1.730801e+03,2.229157e+03
1.742371e+03,2.232683e+03
1.753942e+03,2.233296e+03
1.765513e+03,2.207010e+03
1.777084e+03,2.208867e+03
1.788655e+03,2.197393e+03
1.800225e+03,2.170128e+03
1.811796e+03,2.152619e+03
1.823367e+03,2.141647e+03
1.834938e+03,2.131568e+03
1.846509e+03,2.131099e+03
1.858079e+03,2.130252e+03
1.869650e+03,2.087301e+03
1.881221e+03,2.096056e+03
1.892792e+03,2.082109e+03
1.904363e+03,2.068892e+03
1.915933e+03,2.066082e+03
1.927504e+03,2.037343e+03
1.939075e+03,2.038630e+03
1.950646e+03,2.005009e+03
1.962217e+03,2.006979e+03
1.973787e+03,1.990506e+03
1.985358e+03,1.957799e+03
1.996929e+03,1.955826e+03
2.008500e+03,1.950638e+03
2.020071e+03,1.935779e+03
2.031641e+03,1.937277e+03
2.043212e+03,1.917014e+03
2.054783e+03,1.885378e+03
2.066354e+03,1.874716e+03
2.077925e+03,1.868113e+03
2.089496e+03,1.834586e+03
2.101066e+03,1.828253e+03
2.112637e+03,1.799414e+03
2.124208e+03,1.801670e+03
2.135779e+03,1.775914e+03
2.147350e+03,1.755434e+03
2.158920e+03,1.746962e+03
2.170491e+03,1.731198e+03
2.182062e+03,1.705981e+03
2.193633e+03,1.709954e+03
2.205204e+03,1.701831e+03
2.216774e+03,1.664816e+03
2.228345e+03,1.654351e+03
2.239916e+03,1.613112e+03
2.251487e+03,1.624333e+03
2.263058e+03,1.613188e+03
2.274628e+03,1.584775e+03
2.286199e+03,1.552056e+03
2.297770e+03,1.522753e+03
2.309341e+03,1.522628e+03
2.320912e+03,1.507900e+03
2.332482e+03,1.489171e+03
2.344053e+03,1.478700e+03
2.355624e+03,1.458538e+03
2.367195e+03,1.448578e+03
2.378766e+03,1.433422e+03
2.390336e+03,1.418045e+03
2.401907e+03,1.392820e+03
2.413478e+03,1.375917e+03
2.425049e+03,1.353386e+03
2.436620e+03,1.356490e+03
2.448190e+03,1.331747e+03
2.459761e+03,1.310757e+03
2.471332e+03,1.313213e+03
2.482903e+03,1.297168e+03
2.494474e+03,1.280131e+03
2.506044e+03,1.263581e+03
2.517615e+03,1.253272e+03
2.529186e+03,1.252888e+03
2.540757e+03,1.215143e+03
2.552328e+03,1.233399e+03
2.563898e+03,1.205172e+03
2.575469e+03,1.193983e+03
2.587040e+03,1.171940e+03
2.598611e+03,1.179901e+03
2.610182e+03,1.153374e+03
2.621752e+03,1.146744e+03
2.633323e+03,1.150728e+03
2.644894e+03,1.122952e+03
2.656465e+03,1.118144e+03
2.668036e+03,1.113926e+03
2.679606e+03,1.110573e+03
2.691177e+03,1.095260e+03
2.702748e+03,1.096190e+03
2.714319e+03,1.074477e+03
2.725890e+03,1.069371e+03
2.737460e+03,1.048969e+03
2.749031e+03,1.042562e+03
2.760602e+03,1.075867e+03
2.772173e+03,1.055616e+03
2.783744e+03,1.050050e+03
2.795314e+03,1.033059e+03
2.806885e+03,1.022106e+03
2.818456e+03,1.027564e+03
2.830027e+03,1.018976e+03
2.841598e+03,1.017446e+03
2.853168e+03,1.005042e+03
2.864739e+03,9.999141e+02
2.876310e+03,1.027490e+03
2.887881e+03,1.023138e+03
2.899452e+03,1.000920e+03
2.911022e+03,9.866190e+02
2.922593e+03,1.001954e+03
2.934164e+03,1.006464e+03
2.945735e+03,9.918334e+02
2.957306e+03,1.045784e+03
2.968876e+03,1.022520e+03
2.980447e+03,9.853222e+02
2.992018e+03,9.907387e+02
3.003589e+03,9.754290e+02
3.015160e+03,9.857745e+02
3.026730e+03,9.464440e+02
3.038301e+03,9.621758e+02
3.049872e+03,9.672590e+02
3.061443e+03,9.598625e+02
3.073014e+03,9.938060e+02
3.084584e+03,9.574024e+02
3.096155e+03,9.605757e+02
3.107726e+03,9.370726e+02
3.119297e+03,9.942399e+02
3.130868e+03,9.841439e+02
3.142438e+03,9.821658e+02
3.154009e+03,1.003303e+03
3.165580e+03,9.947056e+02
3.177151e+03,1.021438e+03
3.188722e+03,1.029712e+03
3.200292e+03,1.018050e+03
3.211863e+03,0.000000e+00
3.223434e+03,0.000000e+00
3.235005e+03,0.000000e+00
3.246576e+03,0.000000e+00
3.258146e+03,0.000000e+00
3.269717e+03,0.000000e+00
3.281288e+03,0.000000e+00
3.292859e+03,0.000000e+00
3.304430e+03,0.000000e+00
3.316000e+03,0.000000e+00
3.327571e+03,0.000000e+00
3.339142e+03,0.000000e+00
3.350713e+03,0.000000e+00
3.362284e+03,0.000000e+00
3.373854e+03,0.000000e+00
3.385425e+03,0.000000e+00
3.396996e+03,0.000000e+00
3.408567e+03,0.000000e+00
3.420138e+03,0.000000e+00
3.431708e+03,0.000000e+00
3.443279e+03,0.000000e+00
3.454850e+03,0.000000e+00
3.466421e+03,0.000000e+00
3.477992e+03,0.000000e+00
3.489563e+03,0.000000e+00
3.500169e+03,0.000000e+00