Folder: Taff_Bargoed_microplastics_data/RAMAN_data/14032024_r1 (part 5)

File: red fibre5.CSV
9.931763e+01,0.000000e+00
1.108884e+02,0.000000e+00
1.224592e+02,0.000000e+00
1.340300e+02,0.000000e+00
1.456008e+02,0.000000e+00
1.571716e+02,0.000000e+00
1.687424e+02,0.000000e+00
1.803132e+02,0.000000e+00
1.918840e+02,0.000000e+00
2.034548e+02,9.062777e+03
2.150256e+02,9.095550e+03
2.265964e+02,9.152636e+03
2.381673e+02,9.224254e+03
2.497381e+02,9.288545e+03
2.613088e+02,9.334147e+03
2.728796e+02,9.458649e+03
2.844504e+02,9.518085e+03
2.960212e+02,9.540396e+03
3.075920e+02,9.617348e+03
3.191628e+02,9.664996e+03
3.307336e+02,9.761962e+03
3.423044e+02,9.838207e+03
3.538752e+02,9.889717e+03
3.654461e+02,9.917916e+03
3.770169e+02,1.002283e+04
3.885877e+02,1.006803e+04
4.001585e+02,1.011468e+04
4.117293e+02,1.016932e+04
4.233001e+02,1.022403e+04
4.348709e+02,1.031608e+04
4.464417e+02,1.036820e+04
4.580125e+02,1.040805e+04
4.695833e+02,1.045449e+04
4.811541e+02,1.045938e+04
4.927249e+02,1.046252e+04
5.042957e+02,1.048511e+04
5.158665e+02,1.051016e+04
5.274373e+02,1.053621e+04
5.390081e+02,1.048128e+04
5.505789e+02,1.056939e+04
5.621497e+02,1.056475e+04
5.737205e+02,1.052616e+04
5.852913e+02,1.051251e+04
5.968621e+02,1.054794e+04
6.084329e+02,1.054451e+04
6.200037e+02,1.051443e+04
6.315745e+02,1.048686e+04
6.431453e+02,1.047507e+04
6.547161e+02,1.048124e+04
6.662869e+02,1.043848e+04
6.778577e+02,1.047206e+04
6.894285e+02,1.040706e+04
7.009993e+02,1.041995e+04
7.125701e+02,1.041309e+04
7.241409e+02,1.035717e+04
7.357117e+02,1.033970e+04
7.472825e+02,1.036706e+04
7.588533e+02,1.030850e+04
7.704241e+02,1.025493e+04
7.819949e+02,1.022679e+04
7.935657e+02,1.030709e+04
8.051365e+02,1.023156e+04
8.167073e+02,1.016406e+04
8.282781e+02,1.013587e+04
8.398489e+02,1.014000e+04
8.514197e+02,1.009330e+04
8.629905e+02,1.003830e+04
8.745613e+02,1.002561e+04
8.861321e+02,9.999426e+03
8.977029e+02,9.969531e+03
9.092737e+02,9.924436e+03
9.208445e+02,9.900252e+03
9.324153e+02,9.881355e+03
9.439861e+02,9.819885e+03
9.555569e+02,9.746405e+03
9.671277e+02,9.746448e+03
9.786985e+02,9.690953e+03
9.902693e+02,9.652469e+03
1.001840e+03,9.614181e+03
1.013411e+03,9.607825e+03
1.024982e+03,9.559783e+03
1.036552e+03,9.531740e+03
1.048123e+03,9.467714e+03
1.059694e+03,9.465904e+03
1.071265e+03,9.460801e+03
1.082836e+03,9.425011e+03
1.094406e+03,9.368687e+03
1.105977e+03,9.378026e+03
1.117548e+03,9.464399e+03
1.129119e+03,9.359760e+03
1.140690e+03,9.291275e+03
1.152261e+03,9.313067e+03
1.163831e+03,9.203190e+03
1.175402e+03,9.144044e+03
1.186973e+03,9.103025e+03
1.198544e+03,9.081212e+03
1.210115e+03,9.038763e+03
1.221685e+03,8.996311e+03
1.233256e+03,8.973041e+03
1.244827e+03,8.918512e+03
1.256398e+03,8.900547e+03
1.267969e+03,8.964451e+03
1.279539e+03,8.815447e+03
1.291110e+03,8.774552e+03
1.302681e+03,8.733164e+03
1.314252e+03,8.633714e+03
1.325823e+03,8.646636e+03
1.337393e+03,8.635710e+03
1.348964e+03,8.634521e+03
1.360535e+03,8.684000e+03
1.372106e+03,8.801687e+03
1.383677e+03,8.623865e+03
1.395247e+03,8.529465e+03
1.406818e+03,8.498884e+03
1.418389e+03,8.434878e+03
1.429960e+03,8.366194e+03
1.441531e+03,8.324827e+03
1.453101e+03,8.281958e+03
1.464672e+03,8.313778e+03
1.476243e+03,8.241659e+03
1.487814e+03,8.139050e+03
1.499385e+03,8.101183e+03
1.510955e+03,8.037778e+03
1.522526e+03,7.993519e+03
1.534097e+03,7.919382e+03
1.545668e+03,7.878309e+03
1.557239e+03,7.899338e+03
1.568809e+03,7.827014e+03
1.580380e+03,7.847315e+03
1.591951e+03,7.920651e+03
1.603522e+03,7.729689e+03
1.615093e+03,7.692695e+03
1.626663e+03,7.625783e+03
1.638234e+03,7.551294e+03
1.649805e+03,7.495904e+03
1.661376e+03,7.454479e+03
1.672947e+03,7.382222e+03
1.684517e+03,7.316043e+03
1.696088e+03,7.286643e+03
1.707659e+03,7.276396e+03
1.719230e+03,7.201500e+03
1.730801e+03,7.112330e+03
1.742371e+03,7.073598e+03
1.753942e+03,7.020948e+03
1.765513e+03,6.986725e+03
1.777084e+03,6.914726e+03
1.788655e+03,6.867521e+03
1.800225e+03,6.829400e+03
1.811796e+03,6.740920e+03
1.823367e+03,6.711225e+03
1.834938e+03,6.688667e+03
1.846509e+03,6.635417e+03
1.858079e+03,6.569247e+03
1.869650e+03,6.505677e+03
1.881221e+03,6.437588e+03
1.892792e+03,6.419394e+03
1.904363e+03,6.360509e+03
1.915933e+03,6.283476e+03
1.927504e+03,6.238469e+03
1.939075e+03,6.194660e+03
1.950646e+03,6.155454e+03
1.962217e+03,6.088559e+03
1.973787e+03,6.021251e+03
1.985358e+03,5.986742e+03
1.996929e+03,5.903252e+03
2.008500e+03,5.861951e+03
2.020071e+03,5.822800e+03
2.031641e+03,5.769788e+03
2.043212e+03,5.684961e+03
2.054783e+03,5.631847e+03
2.066354e+03,5.582132e+03
2.077925e+03,5.532893e+03
2.089496e+03,5.490715e+03
2.101066e+03,5.409211e+03
2.112637e+03,5.359080e+03
2.124208e+03,5.349962e+03
2.135779e+03,5.244755e+03
2.147350e+03,5.191979e+03
2.158920e+03,5.205923e+03
2.170491e+03,5.152747e+03
2.182062e+03,5.065816e+03
2.193633e+03,4.998469e+03
2.205204e+03,4.973170e+03
2.216774e+03,4.913760e+03
2.228345e+03,4.848036e+03
2.239916e+03,4.802786e+03
2.251487e+03,4.755625e+03
2.263058e+03,4.713768e+03
2.274628e+03,4.620097e+03
2.286199e+03,4.576040e+03
2.297770e+03,4.597823e+03
2.309341e+03,4.510607e+03
2.320912e+03,4.465134e+03
2.332482e+03,4.406632e+03
2.344053e+03,4.406697e+03
2.355624e+03,4.341338e+03
2.367195e+03,4.303137e+03
2.378766e+03,4.270812e+03
2.390336e+03,4.201845e+03
2.401907e+03,4.151936e+03
2.413478e+03,4.117257e+03
2.425049e+03,4.087774e+03
2.436620e+03,4.071328e+03
2.448190e+03,3.996143e+03
2.459761e+03,3.982043e+03
2.471332e+03,3.938161e+03
2.482903e+03,3.868935e+03
2.494474e+03,3.822988e+03
2.506044e+03,3.820392e+03
2.517615e+03,3.767516e+03
2.529186e+03,3.743075e+03
2.540757e+03,3.702811e+03
2.552328e+03,3.664323e+03
2.563898e+03,3.621757e+03
2.575469e+03,3.611488e+03
2.587040e+03,3.560731e+03
2.598611e+03,3.531512e+03
2.610182e+03,3.494025e+03
2.621752e+03,3.466265e+03
2.633323e+03,3.413577e+03
2.644894e+03,3.399755e+03
2.656465e+03,3.363649e+03
2.668036e+03,3.303644e+03
2.679606e+03,3.301609e+03
2.691177e+03,3.242020e+03
2.702748e+03,3.244539e+03
2.714319e+03,3.235981e+03
2.725890e+03,3.159274e+03
2.737460e+03,3.140159e+03
2.749031e+03,3.159764e+03
2.760602e+03,3.094443e+03
2.772173e+03,3.070932e+03
2.783744e+03,3.049696e+03
2.795314e+03,3.028543e+03
2.806885e+03,3.001871e+03
2.818456e+03,2.977103e+03
2.830027e+03,2.962950e+03
2.841598e+03,2.928895e+03
2.853168e+03,2.891651e+03
2.864739e+03,2.853944e+03
2.876310e+03,2.842209e+03
2.887881e+03,2.864321e+03
2.899452e+03,2.825280e+03
2.911022e+03,2.803968e+03
2.922593e+03,2.798430e+03
2.934164e+03,2.732392e+03
2.945735e+03,2.707874e+03
2.957306e+03,2.725886e+03
2.968876e+03,2.678662e+03
2.980447e+03,2.628336e+03
2.992018e+03,2.599671e+03
3.003589e+03,2.571965e+03
3.015160e+03,2.575321e+03
3.026730e+03,2.571156e+03
3.038301e+03,2.509746e+03
3.049872e+03,2.504725e+03
3.061443e+03,2.525341e+03
3.073014e+03,2.470646e+03
3.084584e+03,2.481063e+03
3.096155e+03,2.460537e+03
3.107726e+03,2.487915e+03
3.119297e+03,2.464808e+03
3.130868e+03,2.488689e+03
3.142438e+03,2.385843e+03
3.154009e+03,2.404676e+03
3.165580e+03,2.431288e+03
3.177151e+03,2.332535e+03
3.188722e+03,2.412905e+03
3.200292e+03,2.380082e+03
3.211863e+03,0.000000e+00
3.223434e+03,0.000000e+00
3.235005e+03,0.000000e+00
3.246576e+03,0.000000e+00
3.258146e+03,0.000000e+00
3.269717e+03,0.000000e+00
3.281288e+03,0.000000e+00
3.292859e+03,0.000000e+00
3.304430e+03,0.000000e+00
3.316000e+03,0.000000e+00
3.327571e+03,0.000000e+00
3.339142e+03,0.000000e+00
3.350713e+03,0.000000e+00
3.362284e+03,0.000000e+00
3.373854e+03,0.000000e+00
3.385425e+03,0.000000e+00
3.396996e+03,0.000000e+00
3.408567e+03,0.000000e+00
3.420138e+03,0.000000e+00
3.431708e+03,0.000000e+00
3.443279e+03,0.000000e+00
3.454850e+03,0.000000e+00
3.466421e+03,0.000000e+00
3.477992e+03,0.000000e+00
3.489563e+03,0.000000e+00
3.500169e+03,0.000000e+00