Folder: Taff_Bargoed_microplastics_data/RAMAN_data/14032024_r1 (part 3)

File: black fibre13.CSV
9.931763e+01,0.000000e+00
1.108884e+02,0.000000e+00
1.224592e+02,0.000000e+00
1.340300e+02,0.000000e+00
1.456008e+02,0.000000e+00
1.571716e+02,0.000000e+00
1.687424e+02,0.000000e+00
1.803132e+02,0.000000e+00
1.918840e+02,0.000000e+00
2.034548e+02,1.471074e+03
2.150256e+02,1.479775e+03
2.265964e+02,1.480510e+03
2.381673e+02,1.493164e+03
2.497381e+02,1.500301e+03
2.613088e+02,1.509884e+03
2.728796e+02,1.526345e+03
2.844504e+02,1.534703e+03
2.960212e+02,1.537585e+03
3.075920e+02,1.536344e+03
3.191628e+02,1.552946e+03
3.307336e+02,1.567144e+03
3.423044e+02,1.575249e+03
3.538752e+02,1.571370e+03
3.654461e+02,1.578750e+03
3.770169e+02,1.611489e+03
3.885877e+02,1.588842e+03
4.001585e+02,1.593099e+03
4.117293e+02,1.602276e+03
4.233001e+02,1.603680e+03
4.348709e+02,1.620129e+03
4.464417e+02,1.614366e+03
4.580125e+02,1.622919e+03
4.695833e+02,1.607554e+03
4.811541e+02,1.632067e+03
4.927249e+02,1.661000e+03
5.042957e+02,1.624816e+03
5.158665e+02,1.639203e+03
5.274373e+02,1.624676e+03
5.390081e+02,1.614239e+03
5.505789e+02,1.621419e+03
5.621497e+02,1.613740e+03
5.737205e+02,1.621892e+03
5.852913e+02,1.630929e+03
5.968621e+02,1.622699e+03
6.084329e+02,1.641678e+03
6.200037e+02,1.626337e+03
6.315745e+02,1.632918e+03
6.431453e+02,1.624888e+03
6.547161e+02,1.629073e+03
6.662869e+02,1.618025e+03
6.778577e+02,1.630234e+03
6.894285e+02,1.615559e+03
7.009993e+02,1.627375e+03
7.125701e+02,1.625598e+03
7.241409e+02,1.621489e+03
7.357117e+02,1.617080e+03
7.472825e+02,1.615999e+03
7.588533e+02,1.597402e+03
7.704241e+02,1.587131e+03
7.819949e+02,1.593020e+03
7.935657e+02,1.612160e+03
8.051365e+02,1.581567e+03
8.167073e+02,1.580020e+03
8.282781e+02,1.586109e+03
8.398489e+02,1.585091e+03
8.514197e+02,1.579236e+03
8.629905e+02,1.573411e+03
8.745613e+02,1.560359e+03
8.861321e+02,1.580330e+03
8.977029e+02,1.563780e+03
9.092737e+02,1.550230e+03
9.208445e+02,1.543582e+03
9.324153e+02,1.547708e+03
9.439861e+02,1.536288e+03
9.555569e+02,1.517013e+03
9.671277e+02,1.516722e+03
9.786985e+02,1.495731e+03
9.902693e+02,1.512331e+03
1.001840e+03,1.496035e+03
1.013411e+03,1.491202e+03
1.024982e+03,1.495189e+03
1.036552e+03,1.488141e+03
1.048123e+03,1.487288e+03
1.059694e+03,1.465616e+03
1.071265e+03,1.479710e+03
1.082836e+03,1.491487e+03
1.094406e+03,1.511664e+03
1.105977e+03,1.480074e+03
1.117548e+03,1.503094e+03
1.129119e+03,1.500575e+03
1.140690e+03,1.491348e+03
1.152261e+03,1.503180e+03
1.163831e+03,1.451743e+03
1.175402e+03,1.438158e+03
1.186973e+03,1.431797e+03
1.198544e+03,1.430141e+03
1.210115e+03,1.423776e+03
1.221685e+03,1.413136e+03
1.233256e+03,1.396302e+03
1.244827e+03,1.380643e+03
1.256398e+03,1.377315e+03
1.267969e+03,1.390500e+03
1.279539e+03,1.420177e+03
1.291110e+03,1.414115e+03
1.302681e+03,1.373469e+03
1.314252e+03,1.356427e+03
1.325823e+03,1.357920e+03
1.337393e+03,1.381657e+03
1.348964e+03,1.366010e+03
1.360535e+03,1.348041e+03
1.372106e+03,1.347471e+03
1.383677e+03,1.336675e+03
1.395247e+03,1.298929e+03
1.406818e+03,1.320219e+03
1.418389e+03,1.292814e+03
1.429960e+03,1.288593e+03
1.441531e+03,1.267681e+03
1.453101e+03,1.254453e+03
1.464672e+03,1.243685e+03
1.476243e+03,1.244399e+03
1.487814e+03,1.239169e+03
1.499385e+03,1.221490e+03
1.510955e+03,1.220904e+03
1.522526e+03,1.218399e+03
1.534097e+03,1.187860e+03
1.545668e+03,1.203757e+03
1.557239e+03,1.203553e+03
1.568809e+03,1.213770e+03
1.580380e+03,1.209960e+03
1.591951e+03,1.200844e+03
1.603522e+03,1.166904e+03
1.615093e+03,1.163044e+03
1.626663e+03,1.144956e+03
1.638234e+03,1.144079e+03
1.649805e+03,1.134252e+03
1.661376e+03,1.126196e+03
1.672947e+03,1.120242e+03
1.684517e+03,1.120067e+03
1.696088e+03,1.115867e+03
1.707659e+03,1.112419e+03
1.719230e+03,1.094883e+03
1.730801e+03,1.091918e+03
1.742371e+03,1.072311e+03
1.753942e+03,1.068303e+03
1.765513e+03,1.070520e+03
1.777084e+03,1.060621e+03
1.788655e+03,1.041247e+03
1.800225e+03,1.043248e+03
1.811796e+03,1.022983e+03
1.823367e+03,1.023609e+03
1.834938e+03,1.017619e+03
1.846509e+03,1.018326e+03
1.858079e+03,9.978824e+02
1.869650e+03,9.809081e+02
1.881221e+03,9.807386e+02
1.892792e+03,9.697753e+02
1.904363e+03,9.538685e+02
1.915933e+03,9.502218e+02
1.927504e+03,9.507276e+02
1.939075e+03,9.388584e+02
1.950646e+03,9.344201e+02
1.962217e+03,9.313016e+02
1.973787e+03,9.180567e+02
1.985358e+03,9.060929e+02
1.996929e+03,9.059302e+02
2.008500e+03,8.958316e+02
2.020071e+03,8.759953e+02
2.031641e+03,8.804092e+02
2.043212e+03,8.660001e+02
2.054783e+03,8.542795e+02
2.066354e+03,8.448166e+02
2.077925e+03,8.506008e+02
2.089496e+03,8.356887e+02
2.101066e+03,8.358876e+02
2.112637e+03,8.224689e+02
2.124208e+03,8.281374e+02
2.135779e+03,8.039200e+02
2.147350e+03,7.969857e+02
2.158920e+03,7.940136e+02
2.170491e+03,7.843361e+02
2.182062e+03,7.682108e+02
2.193633e+03,7.739469e+02
2.205204e+03,7.424267e+02
2.216774e+03,7.571945e+02
2.228345e+03,7.333099e+02
2.239916e+03,7.253076e+02
2.251487e+03,7.316275e+02
2.263058e+03,7.165226e+02
2.274628e+03,7.124467e+02
2.286199e+03,7.064667e+02
2.297770e+03,6.943300e+02
2.309341e+03,6.893847e+02
2.320912e+03,6.810179e+02
2.332482e+03,6.795638e+02
2.344053e+03,6.728953e+02
2.355624e+03,6.528881e+02
2.367195e+03,6.507386e+02
2.378766e+03,6.603849e+02
2.390336e+03,6.383184e+02
2.401907e+03,6.426956e+02
2.413478e+03,6.204114e+02
2.425049e+03,6.171202e+02
2.436620e+03,6.219404e+02
2.448190e+03,6.072206e+02
2.459761e+03,6.016818e+02
2.471332e+03,5.823712e+02
2.482903e+03,5.922887e+02
2.494474e+03,5.792122e+02
2.506044e+03,5.913931e+02
2.517615e+03,5.800225e+02
2.529186e+03,5.643829e+02
2.540757e+03,5.591273e+02
2.552328e+03,5.603398e+02
2.563898e+03,5.679093e+02
2.575469e+03,5.521191e+02
2.587040e+03,5.420789e+02
2.598611e+03,5.266592e+02
2.610182e+03,5.216937e+02
2.621752e+03,5.175731e+02
2.633323e+03,5.229909e+02
2.644894e+03,5.159361e+02
2.656465e+03,5.105331e+02
2.668036e+03,5.280118e+02
2.679606e+03,4.986012e+02
2.691177e+03,4.971632e+02
2.702748e+03,4.873421e+02
2.714319e+03,4.983137e+02
2.725890e+03,4.908030e+02
2.737460e+03,4.889832e+02
2.749031e+03,4.954995e+02
2.760602e+03,4.772730e+02
2.772173e+03,4.642954e+02
2.783744e+03,4.811773e+02
2.795314e+03,4.575891e+02
2.806885e+03,4.393827e+02
2.818456e+03,4.512850e+02
2.830027e+03,4.542115e+02
2.841598e+03,4.581443e+02
2.853168e+03,4.605827e+02
2.864739e+03,4.504450e+02
2.876310e+03,4.660586e+02
2.887881e+03,4.865636e+02
2.899452e+03,4.885153e+02
2.911022e+03,4.734961e+02
2.922593e+03,4.531946e+02
2.934164e+03,4.441266e+02
2.945735e+03,4.498661e+02
2.957306e+03,4.955538e+02
2.968876e+03,4.265944e+02
2.980447e+03,3.856754e+02
2.992018e+03,4.006717e+02
3.003589e+03,4.091664e+02
3.015160e+03,3.934019e+02
3.026730e+03,3.916926e+02
3.038301e+03,4.047009e+02
3.049872e+03,3.863300e+02
3.061443e+03,3.964804e+02
3.073014e+03,3.791552e+02
3.084584e+03,3.886300e+02
3.096155e+03,3.835191e+02
3.107726e+03,3.955381e+02
3.119297e+03,3.907959e+02
3.130868e+03,4.018458e+02
3.142438e+03,3.949805e+02
3.154009e+03,3.890517e+02
3.165580e+03,3.888955e+02
3.177151e+03,3.566219e+02
3.188722e+03,3.839003e+02
3.200292e+03,4.220110e+02
3.211863e+03,0.000000e+00
3.223434e+03,0.000000e+00
3.235005e+03,0.000000e+00
3.246576e+03,0.000000e+00
3.258146e+03,0.000000e+00
3.269717e+03,0.000000e+00
3.281288e+03,0.000000e+00
3.292859e+03,0.000000e+00
3.304430e+03,0.000000e+00
3.316000e+03,0.000000e+00
3.327571e+03,0.000000e+00
3.339142e+03,0.000000e+00
3.350713e+03,0.000000e+00
3.362284e+03,0.000000e+00
3.373854e+03,0.000000e+00
3.385425e+03,0.000000e+00
3.396996e+03,0.000000e+00
3.408567e+03,0.000000e+00
3.420138e+03,0.000000e+00
3.431708e+03,0.000000e+00
3.443279e+03,0.000000e+00
3.454850e+03,0.000000e+00
3.466421e+03,0.000000e+00
3.477992e+03,0.000000e+00
3.489563e+03,0.000000e+00
3.500169e+03,0.000000e+00

File: blue fibre1.CSV
9.931763e+01,0.000000e+00
1.108884e+02,0.000000e+00
1.224592e+02,0.000000e+00
1.340300e+02,0.000000e+00
1.456008e+02,0.000000e+00
1.571716e+02,0.000000e+00
1.687424e+02,0.000000e+00
1.803132e+02,0.000000e+00
1.918840e+02,0.000000e+00
2.034548e+02,1.050865e+03
2.150256e+02,1.058031e+03
2.265964e+02,1.046600e+03
2.381673e+02,1.050037e+03
2.497381e+02,1.058100e+03
2.613088e+02,1.058748e+03
2.728796e+02,1.050443e+03
2.844504e+02,1.061196e+03
2.960212e+02,1.058737e+03
3.075920e+02,1.062096e+03
3.191628e+02,1.061442e+03
3.307336e+02,1.066139e+03
3.423044e+02,1.060117e+03
3.538752e+02,1.056250e+03
3.654461e+02,1.055562e+03
3.770169e+02,1.082911e+03
3.885877e+02,1.049975e+03
4.001585e+02,1.048596e+03
4.117293e+02,1.047473e+03
4.233001e+02,1.041505e+03
4.348709e+02,1.047945e+03
4.464417e+02,1.035179e+03
4.580125e+02,1.039682e+03
4.695833e+02,1.016166e+03
4.811541e+02,1.024275e+03
4.927249e+02,1.025214e+03
5.042957e+02,1.011110e+03
5.158665e+02,1.012915e+03
5.274373e+02,1.013040e+03
5.390081e+02,9.987205e+02
5.505789e+02,9.919334e+02
5.621497e+02,9.919265e+02
5.737205e+02,9.809046e+02
5.852913e+02,9.725695e+02
5.968621e+02,9.779853e+02
6.084329e+02,9.708932e+02
6.200037e+02,9.629341e+02
6.315745e+02,9.513723e+02
6.431453e+02,9.474278e+02
6.547161e+02,9.507292e+02
6.662869e+02,9.388366e+02
6.778577e+02,9.359124e+02
6.894285e+02,9.314908e+02
7.009993e+02,9.241213e+02
7.125701e+02,9.180609e+02
7.241409e+02,9.137743e+02
7.357117e+02,8.981259e+02
7.472825e+02,8.865322e+02
7.588533e+02,8.894745e+02
7.704241e+02,8.811083e+02
7.819949e+02,8.761570e+02
7.935657e+02,8.705789e+02
8.051365e+02,8.635461e+02
8.167073e+02,8.535880e+02
8.282781e+02,8.401307e+02
8.398489e+02,8.419890e+02
8.514197e+02,8.446156e+02
8.629905e+02,8.332286e+02
8.745613e+02,8.220789e+02
8.861321e+02,8.385552e+02
8.977029e+02,8.246256e+02
9.092737e+02,8.122743e+02
9.208445e+02,8.036241e+02
9.324153e+02,7.962217e+02
9.439861e+02,7.773497e+02
9.555569e+02,7.916988e+02
9.671277e+02,7.767426e+02
9.786985e+02,7.746086e+02
9.902693e+02,7.704374e+02
1.001840e+03,7.575912e+02
1.013411e+03,7.609148e+02
1.024982e+03,7.490075e+02
1.036552e+03,7.486320e+02
1.048123e+03,7.390056e+02
1.059694e+03,7.460051e+02
1.071265e+03,7.445869e+02
1.082836e+03,7.470992e+02
1.094406e+03,7.647701e+02
1.105977e+03,7.394249e+02
1.117548e+03,7.437789e+02
1.129119e+03,7.215840e+02
1.140690e+03,7.109604e+02
1.152261e+03,7.159079e+02
1.163831e+03,7.065480e+02
1.175402e+03,6.893707e+02
1.186973e+03,6.923481e+02
1.198544e+03,6.910812e+02
1.210115e+03,6.782106e+02
1.221685e+03,6.872524e+02
1.233256e+03,6.784815e+02
1.244827e+03,6.758192e+02
1.256398e+03,6.684542e+02
1.267969e+03,6.564981e+02
1.279539e+03,6.676866e+02
1.291110e+03,6.683408e+02
1.302681e+03,6.624408e+02
1.314252e+03,6.589482e+02
1.325823e+03,6.659495e+02
1.337393e+03,6.653710e+02
1.348964e+03,6.574816e+02
1.360535e+03,6.502433e+02
1.372106e+03,6.551627e+02
1.383677e+03,6.478915e+02
1.395247e+03,6.366463e+02
1.406818e+03,6.373332e+02
1.418389e+03,6.396589e+02
1.429960e+03,6.236074e+02
1.441531e+03,6.161328e+02
1.453101e+03,6.072897e+02
1.464672e+03,6.215462e+02
1.476243e+03,6.096804e+02
1.487814e+03,5.956608e+02
1.499385e+03,5.882120e+02
1.510955e+03,5.870863e+02
1.522526e+03,5.864288e+02
1.534097e+03,5.846318e+02
1.545668e+03,5.777932e+02
1.557239e+03,5.797487e+02
1.568809e+03,5.754783e+02
1.580380e+03,5.722330e+02
1.591951e+03,5.604262e+02
1.603522e+03,5.642637e+02
1.615093e+03,5.671843e+02
1.626663e+03,5.548789e+02
1.638234e+03,5.448185e+02
1.649805e+03,5.395455e+02
1.661376e+03,5.444639e+02
1.672947e+03,5.332225e+02
1.684517e+03,5.291874e+02
1.696088e+03,5.282105e+02
1.707659e+03,5.275454e+02
1.719230e+03,5.167633e+02
1.730801e+03,5.196158e+02
1.742371e+03,5.126786e+02
1.753942e+03,5.044322e+02
1.765513e+03,4.972611e+02
1.777084e+03,4.929893e+02
1.788655e+03,4.904862e+02
1.800225e+03,4.849342e+02
1.811796e+03,4.825010e+02
1.823367e+03,4.793726e+02
1.834938e+03,4.750432e+02
1.846509e+03,4.635003e+02
1.858079e+03,4.604173e+02
1.869650e+03,4.496339e+02
1.881221e+03,4.515805e+02
1.892792e+03,4.458731e+02
1.904363e+03,4.439666e+02
1.915933e+03,4.417395e+02
1.927504e+03,4.311914e+02
1.939075e+03,4.268969e+02
1.950646e+03,4.226681e+02
1.962217e+03,4.263152e+02
1.973787e+03,4.192227e+02
1.985358e+03,4.078626e+02
1.996929e+03,4.077077e+02
2.008500e+03,4.018889e+02
2.020071e+03,3.911608e+02
2.031641e+03,3.908177e+02
2.043212e+03,3.769404e+02
2.054783e+03,3.787226e+02
2.066354e+03,3.731876e+02
2.077925e+03,3.674872e+02
2.089496e+03,3.727220e+02
2.101066e+03,3.632168e+02
2.112637e+03,3.653959e+02
2.124208e+03,3.548631e+02
2.135779e+03,3.435317e+02
2.147350e+03,3.402040e+02
2.158920e+03,3.426071e+02
2.170491e+03,3.329872e+02
2.182062e+03,3.339603e+02
2.193633e+03,3.271694e+02
2.205204e+03,3.265179e+02
2.216774e+03,3.227258e+02
2.228345e+03,3.073456e+02
2.239916e+03,3.228847e+02
2.251487e+03,3.124996e+02
2.263058e+03,3.074091e+02
2.274628e+03,3.001023e+02
2.286199e+03,2.929750e+02
2.297770e+03,3.038610e+02
2.309341e+03,2.917024e+02
2.320912e+03,2.907761e+02
2.332482e+03,2.752297e+02
2.344053e+03,2.818896e+02
2.355624e+03,2.768007e+02
2.367195e+03,2.682271e+02
2.378766e+03,2.672357e+02
2.390336e+03,2.697640e+02
2.401907e+03,2.712495e+02
2.413478e+03,2.563383e+02
2.425049e+03,2.516181e+02
2.436620e+03,2.557767e+02
2.448190e+03,2.481543e+02
2.459761e+03,2.453203e+02
2.471332e+03,2.428279e+02
2.482903e+03,2.427228e+02
2.494474e+03,2.436128e+02
2.506044e+03,2.506267e+02
2.517615e+03,2.384089e+02
2.529186e+03,2.355485e+02
2.540757e+03,2.313488e+02
2.552328e+03,2.378205e+02
2.563898e+03,2.334596e+02
2.575469e+03,2.289236e+02
2.587040e+03,2.291657e+02
2.598611e+03,2.221787e+02
2.610182e+03,2.219044e+02
2.621752e+03,2.171502e+02
2.633323e+03,2.155831e+02
2.644894e+03,2.143482e+02
2.656465e+03,2.192351e+02
2.668036e+03,2.061565e+02
2.679606e+03,2.134031e+02
2.691177e+03,2.115097e+02
2.702748e+03,2.106309e+02
2.714319e+03,2.058486e+02
2.725890e+03,2.057158e+02
2.737460e+03,2.047800e+02
2.749031e+03,2.018140e+02
2.760602e+03,2.061656e+02
2.772173e+03,1.982820e+02
2.783744e+03,1.997181e+02
2.795314e+03,1.972658e+02
2.806885e+03,1.812798e+02
2.818456e+03,1.820852e+02
2.830027e+03,1.915513e+02
2.841598e+03,1.978796e+02
2.853168e+03,2.115134e+02
2.864739e+03,1.957105e+02
2.876310e+03,2.103512e+02
2.887881e+03,2.365475e+02
2.899452e+03,2.355793e+02
2.911022e+03,2.219189e+02
2.922593e+03,2.134748e+02
2.934164e+03,2.039998e+02
2.945735e+03,1.902476e+02
2.957306e+03,2.258544e+02
2.968876e+03,1.888717e+02
2.980447e+03,1.905100e+02
2.992018e+03,1.796093e+02
3.003589e+03,1.742653e+02
3.015160e+03,1.660614e+02
3.026730e+03,1.684783e+02
3.038301e+03,1.714300e+02
3.049872e+03,1.778204e+02
3.061443e+03,1.904187e+02
3.073014e+03,1.625578e+02
3.084584e+03,1.611853e+02
3.096155e+03,1.733750e+02
3.107726e+03,1.859337e+02
3.119297e+03,1.631688e+02
3.130868e+03,1.746826e+02
3.142438e+03,1.707181e+02
3.154009e+03,1.811723e+02
3.165580e+03,1.920772e+02
3.177151e+03,1.780739e+02
3.188722e+03,1.690144e+02
3.200292e+03,1.910350e+02
3.211863e+03,0.000000e+00
3.223434e+03,0.000000e+00
3.235005e+03,0.000000e+00
3.246576e+03,0.000000e+00
3.258146e+03,0.000000e+00
3.269717e+03,0.000000e+00
3.281288e+03,0.000000e+00
3.292859e+03,0.000000e+00
3.304430e+03,0.000000e+00
3.316000e+03,0.000000e+00
3.327571e+03,0.000000e+00
3.339142e+03,0.000000e+00
3.350713e+03,0.000000e+00
3.362284e+03,0.000000e+00
3.373854e+03,0.000000e+00
3.385425e+03,0.000000e+00
3.396996e+03,0.000000e+00
3.408567e+03,0.000000e+00
3.420138e+03,0.000000e+00
3.431708e+03,0.000000e+00
3.443279e+03,0.000000e+00
3.454850e+03,0.000000e+00
3.466421e+03,0.000000e+00
3.477992e+03,0.000000e+00
3.489563e+03,0.000000e+00
3.500169e+03,0.000000e+00

File: clear frag1.CSV
9.931763e+01,0.000000e+00
1.108884e+02,0.000000e+00
1.224592e+02,0.000000e+00
1.340300e+02,0.000000e+00
1.456008e+02,0.000000e+00
1.571716e+02,0.000000e+00
1.687424e+02,0.000000e+00
1.803132e+02,0.000000e+00
1.918840e+02,0.000000e+00
2.034548e+02,7.473187e+02
2.150256e+02,7.413024e+02
2.265964e+02,7.387188e+02
2.381673e+02,7.428322e+02
2.497381e+02,7.404774e+02
2.613088e+02,7.411386e+02
2.728796e+02,7.366009e+02
2.844504e+02,7.346383e+02
2.960212e+02,7.396688e+02
3.075920e+02,7.417482e+02
3.191628e+02,7.357577e+02
3.307336e+02,7.301827e+02
3.423044e+02,7.345605e+02
3.538752e+02,7.348715e+02
3.654461e+02,7.357693e+02
3.770169e+02,7.485006e+02
3.885877e+02,7.298586e+02
4.001585e+02,7.242275e+02
4.117293e+02,7.162003e+02
4.233001e+02,7.131096e+02
4.348709e+02,7.200371e+02
4.464417e+02,7.086153e+02
4.580125e+02,7.136400e+02
4.695833e+02,6.949028e+02
4.811541e+02,6.986540e+02
4.927249e+02,6.921870e+02
5.042957e+02,6.862845e+02
5.158665e+02,6.957256e+02
5.274373e+02,6.756008e+02
5.390081e+02,6.752735e+02
5.505789e+02,6.667250e+02
5.621497e+02,6.664049e+02
5.737205e+02,6.602888e+02
5.852913e+02,6.548787e+02
5.968621e+02,6.516212e+02
6.084329e+02,6.528087e+02
6.200037e+02,6.497679e+02
6.315745e+02,6.377258e+02
6.431453e+02,6.301729e+02
6.547161e+02,6.309164e+02
6.662869e+02,6.326287e+02
6.778577e+02,6.302610e+02
6.894285e+02,6.171893e+02
7.009993e+02,6.151593e+02
7.125701e+02,6.096788e+02
7.241409e+02,6.083477e+02
7.357117e+02,6.024811e+02
7.472825e+02,5.955040e+02
7.588533e+02,5.962258e+02
7.704241e+02,5.891469e+02
7.819949e+02,5.873928e+02
7.935657e+02,5.807930e+02
8.051365e+02,5.816576e+02
8.167073e+02,5.746949e+02
8.282781e+02,5.723698e+02
8.398489e+02,5.718914e+02
8.514197e+02,5.582384e+02
8.629905e+02,5.630574e+02
8.745613e+02,5.614191e+02
8.861321e+02,5.641850e+02
8.977029e+02,5.480873e+02
9.092737e+02,5.488286e+02
9.208445e+02,5.363530e+02
9.324153e+02,5.329539e+02
9.439861e+02,5.260832e+02
9.555569e+02,5.275627e+02
9.671277e+02,5.293765e+02
9.786985e+02,5.213356e+02
9.902693e+02,5.218490e+02
1.001840e+03,5.117808e+02
1.013411e+03,5.102169e+02
1.024982e+03,5.100659e+02
1.036552e+03,5.089837e+02
1.048123e+03,5.125931e+02
1.059694e+03,5.223621e+02
1.071265e+03,5.044802e+02
1.082836e+03,5.161835e+02
1.094406e+03,5.378326e+02
1.105977e+03,5.150396e+02
1.117548e+03,5.192449e+02
1.129119e+03,5.166005e+02
1.140690e+03,4.891683e+02
1.152261e+03,4.887910e+02
1.163831e+03,4.803838e+02
1.175402e+03,4.792448e+02
1.186973e+03,4.746545e+02
1.198544e+03,4.729022e+02
1.210115e+03,4.672120e+02
1.221685e+03,4.636106e+02
1.233256e+03,4.607161e+02
1.244827e+03,4.646013e+02
1.256398e+03,4.683563e+02
1.267969e+03,4.612013e+02
1.279539e+03,4.639015e+02
1.291110e+03,4.856732e+02
1.302681e+03,4.670656e+02
1.314252e+03,4.596603e+02
1.325823e+03,4.623313e+02
1.337393e+03,4.609298e+02
1.348964e+03,4.624226e+02
1.360535e+03,4.557423e+02
1.372106e+03,4.577482e+02
1.383677e+03,4.498409e+02
1.395247e+03,4.395758e+02
1.406818e+03,4.411198e+02
1.418389e+03,4.414223e+02
1.429960e+03,4.416449e+02
1.441531e+03,4.438853e+02
1.453101e+03,4.411860e+02
1.464672e+03,4.365713e+02
1.476243e+03,4.347202e+02
1.487814e+03,4.250981e+02
1.499385e+03,4.124323e+02
1.510955e+03,4.174311e+02
1.522526e+03,4.095420e+02
1.534097e+03,4.145644e+02
1.545668e+03,4.042081e+02
1.557239e+03,4.060454e+02
1.568809e+03,4.033185e+02
1.580380e+03,4.005263e+02
1.591951e+03,4.063363e+02
1.603522e+03,4.036257e+02
1.615093e+03,3.956478e+02
1.626663e+03,3.895661e+02
1.638234e+03,3.893479e+02
1.649805e+03,3.904252e+02
1.661376e+03,3.849276e+02
1.672947e+03,3.754576e+02
1.684517e+03,3.771055e+02
1.696088e+03,3.675231e+02
1.707659e+03,3.782131e+02
1.719230e+03,3.683859e+02
1.730801e+03,3.674348e+02
1.742371e+03,3.646519e+02
1.753942e+03,3.600465e+02
1.765513e+03,3.594622e+02
1.777084e+03,3.602359e+02
1.788655e+03,3.469133e+02
1.800225e+03,3.501912e+02
1.811796e+03,3.431391e+02
1.823367e+03,3.412757e+02
1.834938e+03,3.416133e+02
1.846509e+03,3.336565e+02
1.858079e+03,3.354072e+02
1.869650e+03,3.248306e+02
1.881221e+03,3.216981e+02
1.892792e+03,3.251316e+02
1.904363e+03,3.153564e+02
1.915933e+03,3.215952e+02
1.927504e+03,3.085978e+02
1.939075e+03,3.132091e+02
1.950646e+03,3.055541e+02
1.962217e+03,3.105590e+02
1.973787e+03,3.053281e+02
1.985358e+03,2.982468e+02
1.996929e+03,2.973642e+02
2.008500e+03,2.947789e+02
2.020071e+03,2.912778e+02
2.031641e+03,2.790923e+02
2.043212e+03,2.848724e+02
2.054783e+03,2.747997e+02
2.066354e+03,2.788794e+02
2.077925e+03,2.688448e+02
2.089496e+03,2.748065e+02
2.101066e+03,2.709397e+02
2.112637e+03,2.630121e+02
2.124208e+03,2.610641e+02
2.135779e+03,2.607093e+02
2.147350e+03,2.533666e+02
2.158920e+03,2.484161e+02
2.170491e+03,2.551473e+02
2.182062e+03,2.555894e+02
2.193633e+03,2.392282e+02
2.205204e+03,2.415708e+02
2.216774e+03,2.357081e+02
2.228345e+03,2.331203e+02
2.239916e+03,2.320286e+02
2.251487e+03,2.307889e+02
2.263058e+03,2.346557e+02
2.274628e+03,2.273822e+02
2.286199e+03,2.240009e+02
2.297770e+03,2.277739e+02
2.309341e+03,2.210511e+02
2.320912e+03,2.153335e+02
2.332482e+03,2.188795e+02
2.344053e+03,2.182163e+02
2.355624e+03,2.077485e+02
2.367195e+03,2.060218e+02
2.378766e+03,2.144900e+02
2.390336e+03,2.020030e+02
2.401907e+03,2.062639e+02
2.413478e+03,1.955511e+02
2.425049e+03,1.874285e+02
2.436620e+03,1.952059e+02
2.448190e+03,1.853917e+02
2.459761e+03,1.899567e+02
2.471332e+03,1.925140e+02
2.482903e+03,1.857894e+02
2.494474e+03,1.843814e+02
2.506044e+03,1.867538e+02
2.517615e+03,1.827032e+02
2.529186e+03,1.739497e+02
2.540757e+03,1.821421e+02
2.552328e+03,1.853389e+02
2.563898e+03,1.915105e+02
2.575469e+03,1.804378e+02
2.587040e+03,1.709113e+02
2.598611e+03,1.751004e+02
2.610182e+03,1.708640e+02
2.621752e+03,1.728157e+02
2.633323e+03,1.790317e+02
2.644894e+03,1.690430e+02
2.656465e+03,1.728331e+02
2.668036e+03,1.725825e+02
2.679606e+03,1.724254e+02
2.691177e+03,1.669071e+02
2.702748e+03,1.774977e+02
2.714319e+03,1.726338e+02
2.725890e+03,1.612897e+02
2.737460e+03,1.664164e+02
2.749031e+03,1.653811e+02
2.760602e+03,1.615350e+02
2.772173e+03,1.659979e+02
2.783744e+03,1.681202e+02
2.795314e+03,1.557951e+02
2.806885e+03,1.554335e+02
2.818456e+03,1.536134e+02
2.830027e+03,1.822804e+02
2.841598e+03,2.053979e+02
2.853168e+03,2.217824e+02
2.864739e+03,1.971674e+02
2.876310e+03,2.365959e+02
2.887881e+03,2.321426e+02
2.899452e+03,2.337051e+02
2.911022e+03,2.115100e+02
2.922593e+03,1.856656e+02
2.934164e+03,1.877110e+02
2.945735e+03,1.919839e+02
2.957306e+03,2.059873e+02
2.968876e+03,1.600454e+02
2.980447e+03,1.420648e+02
2.992018e+03,1.680172e+02
3.003589e+03,1.599094e+02
3.015160e+03,1.619676e+02
3.026730e+03,1.432955e+02
3.038301e+03,1.550707e+02
3.049872e+03,1.518453e+02
3.061443e+03,1.541260e+02
3.073014e+03,1.393567e+02
3.084584e+03,1.355591e+02
3.096155e+03,1.339896e+02
3.107726e+03,1.577254e+02
3.119297e+03,1.613535e+02
3.130868e+03,1.603283e+02
3.142438e+03,1.539324e+02
3.154009e+03,1.833983e+02
3.165580e+03,1.626804e+02
3.177151e+03,1.554987e+02
3.188722e+03,1.507888e+02
3.200292e+03,1.588963e+02
3.211863e+03,0.000000e+00
3.223434e+03,0.000000e+00
3.235005e+03,0.000000e+00
3.246576e+03,0.000000e+00
3.258146e+03,0.000000e+00
3.269717e+03,0.000000e+00
3.281288e+03,0.000000e+00
3.292859e+03,0.000000e+00
3.304430e+03,0.000000e+00
3.316000e+03,0.000000e+00
3.327571e+03,0.000000e+00
3.339142e+03,0.000000e+00
3.350713e+03,0.000000e+00
3.362284e+03,0.000000e+00
3.373854e+03,0.000000e+00
3.385425e+03,0.000000e+00
3.396996e+03,0.000000e+00
3.408567e+03,0.000000e+00
3.420138e+03,0.000000e+00
3.431708e+03,0.000000e+00
3.443279e+03,0.000000e+00
3.454850e+03,0.000000e+00
3.466421e+03,0.000000e+00
3.477992e+03,0.000000e+00
3.489563e+03,0.000000e+00
3.500169e+03,0.000000e+00