Folder: Taff_Bargoed_microplastics_data/RAMAN_data/14032024_r1 (part 2)

File: black fibre5.CSV
9.931763e+01,0.000000e+00
1.108884e+02,0.000000e+00
1.224592e+02,0.000000e+00
1.340300e+02,0.000000e+00
1.456008e+02,0.000000e+00
1.571716e+02,0.000000e+00
1.687424e+02,0.000000e+00
1.803132e+02,0.000000e+00
1.918840e+02,0.000000e+00
2.034548e+02,2.304104e+03
2.150256e+02,2.290112e+03
2.265964e+02,2.254573e+03
2.381673e+02,2.237847e+03
2.497381e+02,2.201692e+03
2.613088e+02,2.188388e+03
2.728796e+02,2.197582e+03
2.844504e+02,2.185162e+03
2.960212e+02,2.190465e+03
3.075920e+02,2.191553e+03
3.191628e+02,2.172447e+03
3.307336e+02,2.182041e+03
3.423044e+02,2.168798e+03
3.538752e+02,2.167009e+03
3.654461e+02,2.155257e+03
3.770169e+02,2.156996e+03
3.885877e+02,2.096706e+03
4.001585e+02,2.062260e+03
4.117293e+02,2.054496e+03
4.233001e+02,2.059413e+03
4.348709e+02,2.058185e+03
4.464417e+02,2.039178e+03
4.580125e+02,2.027607e+03
4.695833e+02,2.023306e+03
4.811541e+02,2.007567e+03
4.927249e+02,2.019773e+03
5.042957e+02,2.019450e+03
5.158665e+02,2.011124e+03
5.274373e+02,1.964049e+03
5.390081e+02,1.918737e+03
5.505789e+02,1.923323e+03
5.621497e+02,1.917535e+03
5.737205e+02,1.908803e+03
5.852913e+02,1.893934e+03
5.968621e+02,1.892921e+03
6.084329e+02,1.891029e+03
6.200037e+02,1.877176e+03
6.315745e+02,1.880189e+03
6.431453e+02,1.866038e+03
6.547161e+02,1.860455e+03
6.662869e+02,1.830453e+03
6.778577e+02,1.801569e+03
6.894285e+02,1.785286e+03
7.009993e+02,1.784970e+03
7.125701e+02,1.760888e+03
7.241409e+02,1.782581e+03
7.357117e+02,1.784193e+03
7.472825e+02,1.772272e+03
7.588533e+02,1.764371e+03
7.704241e+02,1.746505e+03
7.819949e+02,1.755832e+03
7.935657e+02,1.743029e+03
8.051365e+02,1.715186e+03
8.167073e+02,1.688463e+03
8.282781e+02,1.683284e+03
8.398489e+02,1.672127e+03
8.514197e+02,1.672458e+03
8.629905e+02,1.669949e+03
8.745613e+02,1.650688e+03
8.861321e+02,1.663033e+03
8.977029e+02,1.646574e+03
9.092737e+02,1.643640e+03
9.208445e+02,1.634224e+03
9.324153e+02,1.641057e+03
9.439861e+02,1.615865e+03
9.555569e+02,1.594927e+03
9.671277e+02,1.581047e+03
9.786985e+02,1.580160e+03
9.902693e+02,1.560803e+03
1.001840e+03,1.555224e+03
1.013411e+03,1.545321e+03
1.024982e+03,1.542629e+03
1.036552e+03,1.563460e+03
1.048123e+03,1.564549e+03
1.059694e+03,1.573132e+03
1.071265e+03,1.610287e+03
1.082836e+03,1.595209e+03
1.094406e+03,1.617229e+03
1.105977e+03,1.587552e+03
1.117548e+03,1.574377e+03
1.129119e+03,1.541096e+03
1.140690e+03,1.563926e+03
1.152261e+03,1.570447e+03
1.163831e+03,1.593857e+03
1.175402e+03,1.555895e+03
1.186973e+03,1.527723e+03
1.198544e+03,1.550312e+03
1.210115e+03,1.561463e+03
1.221685e+03,1.527739e+03
1.233256e+03,1.506359e+03
1.244827e+03,1.495507e+03
1.256398e+03,1.479954e+03
1.267969e+03,1.464616e+03
1.279539e+03,1.484633e+03
1.291110e+03,1.500873e+03
1.302681e+03,1.495032e+03
1.314252e+03,1.508462e+03
1.325823e+03,1.534283e+03
1.337393e+03,1.538076e+03
1.348964e+03,1.493191e+03
1.360535e+03,1.483018e+03
1.372106e+03,1.470546e+03
1.383677e+03,1.444910e+03
1.395247e+03,1.413736e+03
1.406818e+03,1.382542e+03
1.418389e+03,1.390174e+03
1.429960e+03,1.357943e+03
1.441531e+03,1.354309e+03
1.453101e+03,1.345100e+03
1.464672e+03,1.327297e+03
1.476243e+03,1.327170e+03
1.487814e+03,1.320266e+03
1.499385e+03,1.309083e+03
1.510955e+03,1.295943e+03
1.522526e+03,1.283758e+03
1.534097e+03,1.256049e+03
1.545668e+03,1.240625e+03
1.557239e+03,1.247357e+03
1.568809e+03,1.224024e+03
1.580380e+03,1.232578e+03
1.591951e+03,1.207556e+03
1.603522e+03,1.191682e+03
1.615093e+03,1.213844e+03
1.626663e+03,1.160812e+03
1.638234e+03,1.157679e+03
1.649805e+03,1.136153e+03
1.661376e+03,1.134689e+03
1.672947e+03,1.106595e+03
1.684517e+03,1.097589e+03
1.696088e+03,1.075592e+03
1.707659e+03,1.079264e+03
1.719230e+03,1.054441e+03
1.730801e+03,1.045658e+03
1.742371e+03,1.027444e+03
1.753942e+03,1.012797e+03
1.765513e+03,1.003239e+03
1.777084e+03,1.004957e+03
1.788655e+03,9.994258e+02
1.800225e+03,9.750355e+02
1.811796e+03,9.698834e+02
1.823367e+03,9.485406e+02
1.834938e+03,9.371270e+02
1.846509e+03,9.253190e+02
1.858079e+03,9.222095e+02
1.869650e+03,9.053036e+02
1.881221e+03,8.829131e+02
1.892792e+03,8.779373e+02
1.904363e+03,8.641994e+02
1.915933e+03,8.644667e+02
1.927504e+03,8.590576e+02
1.939075e+03,8.457686e+02
1.950646e+03,8.427079e+02
1.962217e+03,8.431721e+02
1.973787e+03,8.200933e+02
1.985358e+03,8.073616e+02
1.996929e+03,7.901956e+02
2.008500e+03,7.814580e+02
2.020071e+03,7.754308e+02
2.031641e+03,7.578464e+02
2.043212e+03,7.486537e+02
2.054783e+03,7.536444e+02
2.066354e+03,7.380518e+02
2.077925e+03,7.321132e+02
2.089496e+03,7.198524e+02
2.101066e+03,7.120108e+02
2.112637e+03,7.057374e+02
2.124208e+03,6.986615e+02
2.135779e+03,6.861469e+02
2.147350e+03,6.620971e+02
2.158920e+03,6.501583e+02
2.170491e+03,6.502448e+02
2.182062e+03,6.447924e+02
2.193633e+03,6.266017e+02
2.205204e+03,6.352691e+02
2.216774e+03,6.365257e+02
2.228345e+03,6.190659e+02
2.239916e+03,6.138670e+02
2.251487e+03,6.024470e+02
2.263058e+03,5.976078e+02
2.274628e+03,5.858320e+02
2.286199e+03,5.752721e+02
2.297770e+03,5.689298e+02
2.309341e+03,5.628489e+02
2.320912e+03,5.492813e+02
2.332482e+03,5.467108e+02
2.344053e+03,5.376296e+02
2.355624e+03,5.310591e+02
2.367195e+03,5.272916e+02
2.378766e+03,5.263655e+02
2.390336e+03,5.190893e+02
2.401907e+03,5.086818e+02
2.413478e+03,4.916519e+02
2.425049e+03,4.974874e+02
2.436620e+03,4.901004e+02
2.448190e+03,4.929755e+02
2.459761e+03,4.839389e+02
2.471332e+03,4.614049e+02
2.482903e+03,4.709575e+02
2.494474e+03,4.584968e+02
2.506044e+03,4.609167e+02
2.517615e+03,4.662119e+02
2.529186e+03,4.585589e+02
2.540757e+03,4.590706e+02
2.552328e+03,4.559676e+02
2.563898e+03,4.503892e+02
2.575469e+03,4.433608e+02
2.587040e+03,4.224991e+02
2.598611e+03,4.249409e+02
2.610182e+03,4.206913e+02
2.621752e+03,4.268584e+02
2.633323e+03,4.192701e+02
2.644894e+03,4.166011e+02
2.656465e+03,4.148669e+02
2.668036e+03,4.286254e+02
2.679606e+03,4.032896e+02
2.691177e+03,4.071107e+02
2.702748e+03,4.009590e+02
2.714319e+03,3.926314e+02
2.725890e+03,3.857368e+02
2.737460e+03,3.886114e+02
2.749031e+03,3.960972e+02
2.760602e+03,3.761242e+02
2.772173e+03,3.779317e+02
2.783744e+03,3.723481e+02
2.795314e+03,3.638363e+02
2.806885e+03,3.767563e+02
2.818456e+03,3.528788e+02
2.830027e+03,3.617463e+02
2.841598e+03,3.759808e+02
2.853168e+03,3.741889e+02
2.864739e+03,3.732467e+02
2.876310e+03,3.845670e+02
2.887881e+03,3.893874e+02
2.899452e+03,3.964286e+02
2.911022e+03,3.886888e+02
2.922593e+03,3.632834e+02
2.934164e+03,3.623763e+02
2.945735e+03,3.525477e+02
2.957306e+03,3.916860e+02
2.968876e+03,3.473072e+02
2.980447e+03,3.368976e+02
2.992018e+03,3.320703e+02
3.003589e+03,3.265232e+02
3.015160e+03,3.149284e+02
3.026730e+03,2.967127e+02
3.038301e+03,3.127517e+02
3.049872e+03,3.025117e+02
3.061443e+03,2.990792e+02
3.073014e+03,3.044071e+02
3.084584e+03,3.150558e+02
3.096155e+03,2.975343e+02
3.107726e+03,3.034628e+02
3.119297e+03,3.146705e+02
3.130868e+03,3.215785e+02
3.142438e+03,3.019581e+02
3.154009e+03,3.158456e+02
3.165580e+03,3.195288e+02
3.177151e+03,3.142582e+02
3.188722e+03,3.032731e+02
3.200292e+03,3.216768e+02
3.211863e+03,0.000000e+00
3.223434e+03,0.000000e+00
3.235005e+03,0.000000e+00
3.246576e+03,0.000000e+00
3.258146e+03,0.000000e+00
3.269717e+03,0.000000e+00
3.281288e+03,0.000000e+00
3.292859e+03,0.000000e+00
3.304430e+03,0.000000e+00
3.316000e+03,0.000000e+00
3.327571e+03,0.000000e+00
3.339142e+03,0.000000e+00
3.350713e+03,0.000000e+00
3.362284e+03,0.000000e+00
3.373854e+03,0.000000e+00
3.385425e+03,0.000000e+00
3.396996e+03,0.000000e+00
3.408567e+03,0.000000e+00
3.420138e+03,0.000000e+00
3.431708e+03,0.000000e+00
3.443279e+03,0.000000e+00
3.454850e+03,0.000000e+00
3.466421e+03,0.000000e+00
3.477992e+03,0.000000e+00
3.489563e+03,0.000000e+00
3.500169e+03,0.000000e+00

File: black fibre6.CSV
9.931763e+01,0.000000e+00
1.108884e+02,0.000000e+00
1.224592e+02,0.000000e+00
1.340300e+02,0.000000e+00
1.456008e+02,0.000000e+00
1.571716e+02,0.000000e+00
1.687424e+02,0.000000e+00
1.803132e+02,0.000000e+00
1.918840e+02,0.000000e+00
2.034548e+02,4.007777e+03
2.150256e+02,4.012662e+03
2.265964e+02,4.035657e+03
2.381673e+02,4.058954e+03
2.497381e+02,4.074779e+03
2.613088e+02,4.078327e+03
2.728796e+02,4.097463e+03
2.844504e+02,4.134352e+03
2.960212e+02,4.142275e+03
3.075920e+02,4.131641e+03
3.191628e+02,4.121558e+03
3.307336e+02,4.145867e+03
3.423044e+02,4.148503e+03
3.538752e+02,4.160151e+03
3.654461e+02,4.162610e+03
3.770169e+02,4.202145e+03
3.885877e+02,4.167689e+03
4.001585e+02,4.180923e+03
4.117293e+02,4.198350e+03
4.233001e+02,4.188143e+03
4.348709e+02,4.194569e+03
4.464417e+02,4.163370e+03
4.580125e+02,4.167409e+03
4.695833e+02,4.105878e+03
4.811541e+02,4.107974e+03
4.927249e+02,4.094285e+03
5.042957e+02,4.095212e+03
5.158665e+02,4.086792e+03
5.274373e+02,4.101595e+03
5.390081e+02,4.088635e+03
5.505789e+02,4.051892e+03
5.621497e+02,4.042961e+03
5.737205e+02,4.032961e+03
5.852913e+02,4.033753e+03
5.968621e+02,4.014390e+03
6.084329e+02,4.010667e+03
6.200037e+02,3.986596e+03
6.315745e+02,3.970838e+03
6.431453e+02,3.912801e+03
6.547161e+02,3.900932e+03
6.662869e+02,3.844443e+03
6.778577e+02,3.825858e+03
6.894285e+02,3.796039e+03
7.009993e+02,3.810138e+03
7.125701e+02,3.808797e+03
7.241409e+02,3.777702e+03
7.357117e+02,3.789799e+03
7.472825e+02,3.723582e+03
7.588533e+02,3.681678e+03
7.704241e+02,3.666638e+03
7.819949e+02,3.648736e+03
7.935657e+02,3.651526e+03
8.051365e+02,3.622214e+03
8.167073e+02,3.601224e+03
8.282781e+02,3.549050e+03
8.398489e+02,3.491923e+03
8.514197e+02,3.466679e+03
8.629905e+02,3.447741e+03
8.745613e+02,3.417243e+03
8.861321e+02,3.419568e+03
8.977029e+02,3.380391e+03
9.092737e+02,3.348630e+03
9.208445e+02,3.290164e+03
9.324153e+02,3.302019e+03
9.439861e+02,3.279660e+03
9.555569e+02,3.270468e+03
9.671277e+02,3.250363e+03
9.786985e+02,3.232521e+03
9.902693e+02,3.201450e+03
1.001840e+03,3.164074e+03
1.013411e+03,3.098779e+03
1.024982e+03,3.075831e+03
1.036552e+03,3.047464e+03
1.048123e+03,3.037281e+03
1.059694e+03,3.059214e+03
1.071265e+03,3.097409e+03
1.082836e+03,3.032102e+03
1.094406e+03,3.023543e+03
1.105977e+03,2.990197e+03
1.117548e+03,2.982397e+03
1.129119e+03,2.973053e+03
1.140690e+03,3.005910e+03
1.152261e+03,3.047505e+03
1.163831e+03,3.046208e+03
1.175402e+03,2.949028e+03
1.186973e+03,2.858971e+03
1.198544e+03,2.858377e+03
1.210115e+03,2.824131e+03
1.221685e+03,2.776790e+03
1.233256e+03,2.758241e+03
1.244827e+03,2.723708e+03
1.256398e+03,2.712803e+03
1.267969e+03,2.696222e+03
1.279539e+03,2.695599e+03
1.291110e+03,2.716553e+03
1.302681e+03,2.733448e+03
1.314252e+03,2.798156e+03
1.325823e+03,2.801500e+03
1.337393e+03,2.790696e+03
1.348964e+03,2.686135e+03
1.360535e+03,2.639753e+03
1.372106e+03,2.615232e+03
1.383677e+03,2.596469e+03
1.395247e+03,2.568174e+03
1.406818e+03,2.521958e+03
1.418389e+03,2.501261e+03
1.429960e+03,2.481718e+03
1.441531e+03,2.459929e+03
1.453101e+03,2.442153e+03
1.464672e+03,2.419004e+03
1.476243e+03,2.407460e+03
1.487814e+03,2.412656e+03
1.499385e+03,2.403469e+03
1.510955e+03,2.390852e+03
1.522526e+03,2.397345e+03
1.534097e+03,2.353527e+03
1.545668e+03,2.330970e+03
1.557239e+03,2.313757e+03
1.568809e+03,2.322605e+03
1.580380e+03,2.357404e+03
1.591951e+03,2.288284e+03
1.603522e+03,2.306624e+03
1.615093e+03,2.269270e+03
1.626663e+03,2.207053e+03
1.638234e+03,2.169705e+03
1.649805e+03,2.159886e+03
1.661376e+03,2.180860e+03
1.672947e+03,2.140888e+03
1.684517e+03,2.140978e+03
1.696088e+03,2.126534e+03
1.707659e+03,2.119476e+03
1.719230e+03,2.080064e+03
1.730801e+03,2.040569e+03
1.742371e+03,2.034657e+03
1.753942e+03,2.011199e+03
1.765513e+03,2.005010e+03
1.777084e+03,1.973455e+03
1.788655e+03,1.967995e+03
1.800225e+03,1.938797e+03
1.811796e+03,1.930026e+03
1.823367e+03,1.898943e+03
1.834938e+03,1.889100e+03
1.846509e+03,1.894993e+03
1.858079e+03,1.870401e+03
1.869650e+03,1.853371e+03
1.881221e+03,1.836007e+03
1.892792e+03,1.804983e+03
1.904363e+03,1.777512e+03
1.915933e+03,1.753843e+03
1.927504e+03,1.727140e+03
1.939075e+03,1.715837e+03
1.950646e+03,1.707055e+03
1.962217e+03,1.687930e+03
1.973787e+03,1.671391e+03
1.985358e+03,1.648337e+03
1.996929e+03,1.632899e+03
2.008500e+03,1.637265e+03
2.020071e+03,1.618655e+03
2.031641e+03,1.610068e+03
2.043212e+03,1.571185e+03
2.054783e+03,1.562562e+03
2.066354e+03,1.546758e+03
2.077925e+03,1.522405e+03
2.089496e+03,1.496783e+03
2.101066e+03,1.458658e+03
2.112637e+03,1.433824e+03
2.124208e+03,1.443927e+03
2.135779e+03,1.420081e+03
2.147350e+03,1.377628e+03
2.158920e+03,1.364892e+03
2.170491e+03,1.378473e+03
2.182062e+03,1.358690e+03
2.193633e+03,1.346445e+03
2.205204e+03,1.319849e+03
2.216774e+03,1.305168e+03
2.228345e+03,1.274902e+03
2.239916e+03,1.280462e+03
2.251487e+03,1.257939e+03
2.263058e+03,1.213691e+03
2.274628e+03,1.189165e+03
2.286199e+03,1.167506e+03
2.297770e+03,1.177232e+03
2.309341e+03,1.157883e+03
2.320912e+03,1.140657e+03
2.332482e+03,1.131742e+03
2.344053e+03,1.126647e+03
2.355624e+03,1.109093e+03
2.367195e+03,1.107191e+03
2.378766e+03,1.097771e+03
2.390336e+03,1.079226e+03
2.401907e+03,1.068692e+03
2.413478e+03,1.053520e+03
2.425049e+03,1.034272e+03
2.436620e+03,1.016883e+03
2.448190e+03,9.983934e+02
2.459761e+03,9.866149e+02
2.471332e+03,9.744517e+02
2.482903e+03,9.706741e+02
2.494474e+03,9.605295e+02
2.506044e+03,9.439078e+02
2.517615e+03,9.309581e+02
2.529186e+03,9.447679e+02
2.540757e+03,9.122391e+02
2.552328e+03,9.225908e+02
2.563898e+03,9.172513e+02
2.575469e+03,9.052620e+02
2.587040e+03,8.841249e+02
2.598611e+03,8.836345e+02
2.610182e+03,8.631485e+02
2.621752e+03,8.472177e+02
2.633323e+03,8.385037e+02
2.644894e+03,8.339679e+02
2.656465e+03,8.352789e+02
2.668036e+03,8.231166e+02
2.679606e+03,8.213801e+02
2.691177e+03,8.066465e+02
2.702748e+03,7.833235e+02
2.714319e+03,8.106533e+02
2.725890e+03,7.804647e+02
2.737460e+03,7.918818e+02
2.749031e+03,7.527125e+02
2.760602e+03,7.701900e+02
2.772173e+03,7.685662e+02
2.783744e+03,7.547562e+02
2.795314e+03,7.475645e+02
2.806885e+03,7.418325e+02
2.818456e+03,7.191467e+02
2.830027e+03,7.268984e+02
2.841598e+03,7.383895e+02
2.853168e+03,7.340734e+02
2.864739e+03,7.259859e+02
2.876310e+03,7.413585e+02
2.887881e+03,7.467135e+02
2.899452e+03,7.464455e+02
2.911022e+03,7.399650e+02
2.922593e+03,7.144008e+02
2.934164e+03,6.872452e+02
2.945735e+03,7.065418e+02
2.957306e+03,7.548944e+02
2.968876e+03,6.987887e+02
2.980447e+03,6.578458e+02
2.992018e+03,6.574947e+02
3.003589e+03,6.647783e+02
3.015160e+03,6.215013e+02
3.026730e+03,6.327956e+02
3.038301e+03,6.338267e+02
3.049872e+03,6.384399e+02
3.061443e+03,6.296722e+02
3.073014e+03,6.521789e+02
3.084584e+03,6.393590e+02
3.096155e+03,6.426074e+02
3.107726e+03,6.330429e+02
3.119297e+03,6.345344e+02
3.130868e+03,6.381251e+02
3.142438e+03,6.293626e+02
3.154009e+03,6.582346e+02
3.165580e+03,6.534667e+02
3.177151e+03,6.202116e+02
3.188722e+03,5.982467e+02
3.200292e+03,6.937839e+02
3.211863e+03,0.000000e+00
3.223434e+03,0.000000e+00
3.235005e+03,0.000000e+00
3.246576e+03,0.000000e+00
3.258146e+03,0.000000e+00
3.269717e+03,0.000000e+00
3.281288e+03,0.000000e+00
3.292859e+03,0.000000e+00
3.304430e+03,0.000000e+00
3.316000e+03,0.000000e+00
3.327571e+03,0.000000e+00
3.339142e+03,0.000000e+00
3.350713e+03,0.000000e+00
3.362284e+03,0.000000e+00
3.373854e+03,0.000000e+00
3.385425e+03,0.000000e+00
3.396996e+03,0.000000e+00
3.408567e+03,0.000000e+00
3.420138e+03,0.000000e+00
3.431708e+03,0.000000e+00
3.443279e+03,0.000000e+00
3.454850e+03,0.000000e+00
3.466421e+03,0.000000e+00
3.477992e+03,0.000000e+00
3.489563e+03,0.000000e+00
3.500169e+03,0.000000e+00

File: black fibre7.CSV
9.931763e+01,0.000000e+00
1.108884e+02,0.000000e+00
1.224592e+02,0.000000e+00
1.340300e+02,0.000000e+00
1.456008e+02,0.000000e+00
1.571716e+02,0.000000e+00
1.687424e+02,0.000000e+00
1.803132e+02,0.000000e+00
1.918840e+02,0.000000e+00
2.034548e+02,6.849001e+03
2.150256e+02,6.896970e+03
2.265964e+02,6.908821e+03
2.381673e+02,6.989116e+03
2.497381e+02,7.054221e+03
2.613088e+02,7.109708e+03
2.728796e+02,7.124500e+03
2.844504e+02,7.189831e+03
2.960212e+02,7.200079e+03
3.075920e+02,7.217191e+03
3.191628e+02,7.247321e+03
3.307336e+02,7.313898e+03
3.423044e+02,7.339664e+03
3.538752e+02,7.362533e+03
3.654461e+02,7.373772e+03
3.770169e+02,7.449225e+03
3.885877e+02,7.440705e+03
4.001585e+02,7.468381e+03
4.117293e+02,7.521313e+03
4.233001e+02,7.509052e+03
4.348709e+02,7.544553e+03
4.464417e+02,7.564501e+03
4.580125e+02,7.564661e+03
4.695833e+02,7.588646e+03
4.811541e+02,7.727392e+03
4.927249e+02,7.766180e+03
5.042957e+02,7.647767e+03
5.158665e+02,7.667282e+03
5.274373e+02,7.650305e+03
5.390081e+02,7.627335e+03
5.505789e+02,7.625115e+03
5.621497e+02,7.677274e+03
5.737205e+02,7.640509e+03
5.852913e+02,7.661283e+03
5.968621e+02,7.688241e+03
6.084329e+02,7.660809e+03
6.200037e+02,7.665635e+03
6.315745e+02,7.635597e+03
6.431453e+02,7.644872e+03
6.547161e+02,7.647471e+03
6.662869e+02,7.612694e+03
6.778577e+02,7.595856e+03
6.894285e+02,7.571997e+03
7.009993e+02,7.560356e+03
7.125701e+02,7.552370e+03
7.241409e+02,7.559109e+03
7.357117e+02,7.519492e+03
7.472825e+02,7.501556e+03
7.588533e+02,7.468297e+03
7.704241e+02,7.455515e+03
7.819949e+02,7.452924e+03
7.935657e+02,7.445803e+03
8.051365e+02,7.402227e+03
8.167073e+02,7.403992e+03
8.282781e+02,7.354354e+03
8.398489e+02,7.352795e+03
8.514197e+02,7.335208e+03
8.629905e+02,7.266219e+03
8.745613e+02,7.270876e+03
8.861321e+02,7.282033e+03
8.977029e+02,7.218140e+03
9.092737e+02,7.223596e+03
9.208445e+02,7.168571e+03
9.324153e+02,7.161954e+03
9.439861e+02,7.112982e+03
9.555569e+02,7.060995e+03
9.671277e+02,7.052010e+03
9.786985e+02,7.006802e+03
9.902693e+02,6.978260e+03
1.001840e+03,6.945993e+03
1.013411e+03,6.949638e+03
1.024982e+03,6.892101e+03
1.036552e+03,6.881296e+03
1.048123e+03,6.815296e+03
1.059694e+03,6.796854e+03
1.071265e+03,6.795181e+03
1.082836e+03,6.781550e+03
1.094406e+03,6.746254e+03
1.105977e+03,6.720192e+03
1.117548e+03,6.785555e+03
1.129119e+03,6.860502e+03
1.140690e+03,6.801244e+03
1.152261e+03,6.832216e+03
1.163831e+03,6.641727e+03
1.175402e+03,6.641327e+03
1.186973e+03,6.617519e+03
1.198544e+03,6.591765e+03
1.210115e+03,6.537233e+03
1.221685e+03,6.499357e+03
1.233256e+03,6.412242e+03
1.244827e+03,6.415468e+03
1.256398e+03,6.363935e+03
1.267969e+03,6.382991e+03
1.279539e+03,6.505650e+03
1.291110e+03,6.339022e+03
1.302681e+03,6.257371e+03
1.314252e+03,6.195476e+03
1.325823e+03,6.186533e+03
1.337393e+03,6.243220e+03
1.348964e+03,6.196686e+03
1.360535e+03,6.119740e+03
1.372106e+03,6.056689e+03
1.383677e+03,6.018112e+03
1.395247e+03,5.936076e+03
1.406818e+03,5.936580e+03
1.418389e+03,5.884130e+03
1.429960e+03,5.834433e+03
1.441531e+03,5.763313e+03
1.453101e+03,5.695370e+03
1.464672e+03,5.661645e+03
1.476243e+03,5.628901e+03
1.487814e+03,5.642881e+03
1.499385e+03,5.601834e+03
1.510955e+03,5.542581e+03
1.522526e+03,5.503852e+03
1.534097e+03,5.466448e+03
1.545668e+03,5.445744e+03
1.557239e+03,5.473229e+03
1.568809e+03,5.473625e+03
1.580380e+03,5.500327e+03
1.591951e+03,5.460275e+03
1.603522e+03,5.302401e+03
1.615093e+03,5.296562e+03
1.626663e+03,5.204692e+03
1.638234e+03,5.165436e+03
1.649805e+03,5.121036e+03
1.661376e+03,5.068382e+03
1.672947e+03,5.027119e+03
1.684517e+03,5.019538e+03
1.696088e+03,4.998469e+03
1.707659e+03,4.981942e+03
1.719230e+03,4.939451e+03
1.730801e+03,4.882295e+03
1.742371e+03,4.871718e+03
1.753942e+03,4.824385e+03
1.765513e+03,4.768702e+03
1.777084e+03,4.736513e+03
1.788655e+03,4.714800e+03
1.800225e+03,4.669922e+03
1.811796e+03,4.608783e+03
1.823367e+03,4.612601e+03
1.834938e+03,4.585611e+03
1.846509e+03,4.545898e+03
1.858079e+03,4.503141e+03
1.869650e+03,4.451284e+03
1.881221e+03,4.412555e+03
1.892792e+03,4.386575e+03
1.904363e+03,4.351839e+03
1.915933e+03,4.311013e+03
1.927504e+03,4.275757e+03
1.939075e+03,4.257584e+03
1.950646e+03,4.202068e+03
1.962217e+03,4.157372e+03
1.973787e+03,4.134450e+03
1.985358e+03,4.099922e+03
1.996929e+03,4.065013e+03
2.008500e+03,3.996579e+03
2.020071e+03,3.997344e+03
2.031641e+03,3.963743e+03
2.043212e+03,3.901770e+03
2.054783e+03,3.853837e+03
2.066354e+03,3.838713e+03
2.077925e+03,3.777452e+03
2.089496e+03,3.772850e+03
2.101066e+03,3.712859e+03
2.112637e+03,3.683597e+03
2.124208e+03,3.658569e+03
2.135779e+03,3.641410e+03
2.147350e+03,3.535427e+03
2.158920e+03,3.532955e+03
2.170491e+03,3.489185e+03
2.182062e+03,3.451969e+03
2.193633e+03,3.460426e+03
2.205204e+03,3.375164e+03
2.216774e+03,3.328695e+03
2.228345e+03,3.313647e+03
2.239916e+03,3.284427e+03
2.251487e+03,3.257150e+03
2.263058e+03,3.225473e+03
2.274628e+03,3.181720e+03
2.286199e+03,3.123598e+03
2.297770e+03,3.123208e+03
2.309341e+03,3.069078e+03
2.320912e+03,3.034895e+03
2.332482e+03,2.997553e+03
2.344053e+03,2.992795e+03
2.355624e+03,2.946360e+03
2.367195e+03,2.898330e+03
2.378766e+03,2.891031e+03
2.390336e+03,2.869469e+03
2.401907e+03,2.812698e+03
2.413478e+03,2.759717e+03
2.425049e+03,2.775838e+03
2.436620e+03,2.720410e+03
2.448190e+03,2.692626e+03
2.459761e+03,2.663116e+03
2.471332e+03,2.651505e+03
2.482903e+03,2.618282e+03
2.494474e+03,2.601100e+03
2.506044e+03,2.552891e+03
2.517615e+03,2.521692e+03
2.529186e+03,2.490575e+03
2.540757e+03,2.454552e+03
2.552328e+03,2.479441e+03
2.563898e+03,2.434958e+03
2.575469e+03,2.420934e+03
2.587040e+03,2.389548e+03
2.598611e+03,2.351100e+03
2.610182e+03,2.328216e+03
2.621752e+03,2.330951e+03
2.633323e+03,2.292858e+03
2.644894e+03,2.287936e+03
2.656465e+03,2.253696e+03
2.668036e+03,2.250151e+03
2.679606e+03,2.220417e+03
2.691177e+03,2.182563e+03
2.702748e+03,2.179875e+03
2.714319e+03,2.162792e+03
2.725890e+03,2.154805e+03
2.737460e+03,2.095865e+03
2.749031e+03,2.108159e+03
2.760602e+03,2.079634e+03
2.772173e+03,2.026610e+03
2.783744e+03,2.034547e+03
2.795314e+03,2.012753e+03
2.806885e+03,1.992276e+03
2.818456e+03,1.995519e+03
2.830027e+03,1.950292e+03
2.841598e+03,1.948545e+03
2.853168e+03,1.931259e+03
2.864739e+03,1.906610e+03
2.876310e+03,1.889311e+03
2.887881e+03,1.907162e+03
2.899452e+03,1.922524e+03
2.911022e+03,1.874944e+03
2.922593e+03,1.817988e+03
2.934164e+03,1.791079e+03
2.945735e+03,1.831276e+03
2.957306e+03,1.816670e+03
2.968876e+03,1.829199e+03
2.980447e+03,1.786371e+03
2.992018e+03,1.747899e+03
3.003589e+03,1.705945e+03
3.015160e+03,1.733852e+03
3.026730e+03,1.730976e+03
3.038301e+03,1.721203e+03
3.049872e+03,1.682081e+03
3.061443e+03,1.671254e+03
3.073014e+03,1.689288e+03
3.084584e+03,1.675619e+03
3.096155e+03,1.680006e+03
3.107726e+03,1.679570e+03
3.119297e+03,1.652992e+03
3.130868e+03,1.612495e+03
3.142438e+03,1.634490e+03
3.154009e+03,1.665053e+03
3.165580e+03,1.656987e+03
3.177151e+03,1.627937e+03
3.188722e+03,1.582164e+03
3.200292e+03,1.657478e+03
3.211863e+03,0.000000e+00
3.223434e+03,0.000000e+00
3.235005e+03,0.000000e+00
3.246576e+03,0.000000e+00
3.258146e+03,0.000000e+00
3.269717e+03,0.000000e+00
3.281288e+03,0.000000e+00
3.292859e+03,0.000000e+00
3.304430e+03,0.000000e+00
3.316000e+03,0.000000e+00
3.327571e+03,0.000000e+00
3.339142e+03,0.000000e+00
3.350713e+03,0.000000e+00
3.362284e+03,0.000000e+00
3.373854e+03,0.000000e+00
3.385425e+03,0.000000e+00
3.396996e+03,0.000000e+00
3.408567e+03,0.000000e+00
3.420138e+03,0.000000e+00
3.431708e+03,0.000000e+00
3.443279e+03,0.000000e+00
3.454850e+03,0.000000e+00
3.466421e+03,0.000000e+00
3.477992e+03,0.000000e+00
3.489563e+03,0.000000e+00
3.500169e+03,0.000000e+00