Folder: Taff_Bargoed_microplastics_data/RAMAN_data/14032024_r2

Note: README.md
# Taff_Bargoed_microplastics_data

File: clear frag1.CSV
9.931763e+01,0.000000e+00
1.108884e+02,0.000000e+00
1.224592e+02,0.000000e+00
1.340300e+02,0.000000e+00
1.456008e+02,0.000000e+00
1.571716e+02,0.000000e+00
1.687424e+02,0.000000e+00
1.803132e+02,0.000000e+00
1.918840e+02,0.000000e+00
2.034548e+02,1.213489e+03
2.150256e+02,1.222398e+03
2.265964e+02,1.221698e+03
2.381673e+02,1.229306e+03
2.497381e+02,1.233996e+03
2.613088e+02,1.232794e+03
2.728796e+02,1.232090e+03
2.844504e+02,1.236703e+03
2.960212e+02,1.238373e+03
3.075920e+02,1.239108e+03
3.191628e+02,1.234191e+03
3.307336e+02,1.235166e+03
3.423044e+02,1.245138e+03
3.538752e+02,1.236950e+03
3.654461e+02,1.232461e+03
3.770169e+02,1.234462e+03
3.885877e+02,1.230605e+03
4.001585e+02,1.229808e+03
4.117293e+02,1.232853e+03
4.233001e+02,1.222907e+03
4.348709e+02,1.229617e+03
4.464417e+02,1.214180e+03
4.580125e+02,1.211845e+03
4.695833e+02,1.209356e+03
4.811541e+02,1.204517e+03
4.927249e+02,1.198082e+03
5.042957e+02,1.206276e+03
5.158665e+02,1.205785e+03
5.274373e+02,1.199222e+03
5.390081e+02,1.185585e+03
5.505789e+02,1.177746e+03
5.621497e+02,1.171276e+03
5.737205e+02,1.175740e+03
5.852913e+02,1.166234e+03
5.968621e+02,1.165261e+03
6.084329e+02,1.173344e+03
6.200037e+02,1.159103e+03
6.315745e+02,1.147902e+03
6.431453e+02,1.139728e+03
6.547161e+02,1.136902e+03
6.662869e+02,1.128094e+03
6.778577e+02,1.115444e+03
6.894285e+02,1.119535e+03
7.009993e+02,1.117581e+03
7.125701e+02,1.109788e+03
7.241409e+02,1.098547e+03
7.357117e+02,1.098405e+03
7.472825e+02,1.087772e+03
7.588533e+02,1.079108e+03
7.704241e+02,1.074464e+03
7.819949e+02,1.068001e+03
7.935657e+02,1.074652e+03
8.051365e+02,1.067807e+03
8.167073e+02,1.052256e+03
8.282781e+02,1.039695e+03
8.398489e+02,1.040412e+03
8.514197e+02,1.023773e+03
8.629905e+02,1.032300e+03
8.745613e+02,1.018004e+03
8.861321e+02,1.015027e+03
8.977029e+02,9.982970e+02
9.092737e+02,9.973715e+02
9.208445e+02,9.940030e+02
9.324153e+02,9.916786e+02
9.439861e+02,9.813597e+02
9.555569e+02,9.747779e+02
9.671277e+02,9.719302e+02
9.786985e+02,9.658680e+02
9.902693e+02,9.641588e+02
1.001840e+03,9.536163e+02
1.013411e+03,9.356712e+02
1.024982e+03,9.440313e+02
1.036552e+03,9.354356e+02
1.048123e+03,9.406577e+02
1.059694e+03,9.375785e+02
1.071265e+03,9.244297e+02
1.082836e+03,9.247668e+02
1.094406e+03,9.195586e+02
1.105977e+03,9.103765e+02
1.117548e+03,9.051709e+02
1.129119e+03,9.093939e+02
1.140690e+03,9.061927e+02
1.152261e+03,8.998899e+02
1.163831e+03,8.965140e+02
1.175402e+03,8.884200e+02
1.186973e+03,8.868156e+02
1.198544e+03,8.867525e+02
1.210115e+03,8.773696e+02
1.221685e+03,8.815204e+02
1.233256e+03,8.732519e+02
1.244827e+03,8.743205e+02
1.256398e+03,8.666074e+02
1.267969e+03,8.670372e+02
1.279539e+03,8.660667e+02
1.291110e+03,8.745411e+02
1.302681e+03,8.599434e+02
1.314252e+03,8.589343e+02
1.325823e+03,8.569998e+02
1.337393e+03,8.570461e+02
1.348964e+03,8.553159e+02
1.360535e+03,8.482793e+02
1.372106e+03,8.451472e+02
1.383677e+03,8.400973e+02
1.395247e+03,8.329479e+02
1.406818e+03,8.261368e+02
1.418389e+03,8.349369e+02
1.429960e+03,8.292820e+02
1.441531e+03,8.399316e+02
1.453101e+03,8.226956e+02
1.464672e+03,8.149389e+02
1.476243e+03,8.206572e+02
1.487814e+03,8.000817e+02
1.499385e+03,7.933842e+02
1.510955e+03,7.947570e+02
1.522526e+03,7.968974e+02
1.534097e+03,7.845125e+02
1.545668e+03,7.831902e+02
1.557239e+03,7.810267e+02
1.568809e+03,7.876144e+02
1.580380e+03,7.813656e+02
1.591951e+03,7.726287e+02
1.603522e+03,7.700441e+02
1.615093e+03,7.718961e+02
1.626663e+03,7.474357e+02
1.638234e+03,7.505465e+02
1.649805e+03,7.377983e+02
1.661376e+03,7.323868e+02
1.672947e+03,7.269155e+02
1.684517e+03,7.199808e+02
1.696088e+03,7.162864e+02
1.707659e+03,7.167203e+02
1.719230e+03,7.013232e+02
1.730801e+03,6.973997e+02
1.742371e+03,7.017372e+02
1.753942e+03,7.015416e+02
1.765513e+03,6.898126e+02
1.777084e+03,6.792794e+02
1.788655e+03,6.733954e+02
1.800225e+03,6.696121e+02
1.811796e+03,6.635996e+02
1.823367e+03,6.554690e+02
1.834938e+03,6.630980e+02
1.846509e+03,6.472729e+02
1.858079e+03,6.456428e+02
1.869650e+03,6.315686e+02
1.881221e+03,6.238316e+02
1.892792e+03,6.144420e+02
1.904363e+03,6.197856e+02
1.915933e+03,6.126625e+02
1.927504e+03,6.000472e+02
1.939075e+03,6.039622e+02
1.950646e+03,5.842253e+02
1.962217e+03,5.960811e+02
1.973787e+03,5.792391e+02
1.985358e+03,5.835792e+02
1.996929e+03,5.546612e+02
2.008500e+03,5.570738e+02
2.020071e+03,5.468527e+02
2.031641e+03,5.552319e+02
2.043212e+03,5.533088e+02
2.054783e+03,5.310686e+02
2.066354e+03,5.329056e+02
2.077925e+03,5.282218e+02
2.089496e+03,5.212770e+02
2.101066e+03,5.118304e+02
2.112637e+03,5.027599e+02
2.124208e+03,4.984269e+02
2.135779e+03,4.924005e+02
2.147350e+03,4.907287e+02
2.158920e+03,4.858004e+02
2.170491e+03,4.840488e+02
2.182062e+03,4.852101e+02
2.193633e+03,4.680674e+02
2.205204e+03,4.730026e+02
2.216774e+03,4.702420e+02
2.228345e+03,4.595099e+02
2.239916e+03,4.459673e+02
2.251487e+03,4.484942e+02
2.263058e+03,4.406185e+02
2.274628e+03,4.345631e+02
2.286199e+03,4.353402e+02
2.297770e+03,4.261626e+02
2.309341e+03,4.219852e+02
2.320912e+03,4.171229e+02
2.332482e+03,4.120584e+02
2.344053e+03,4.085408e+02
2.355624e+03,4.029663e+02
2.367195e+03,3.876676e+02
2.378766e+03,3.958282e+02
2.390336e+03,3.924951e+02
2.401907e+03,3.946605e+02
2.413478e+03,3.766887e+02
2.425049e+03,3.790601e+02
2.436620e+03,3.798315e+02
2.448190e+03,3.651964e+02
2.459761e+03,3.617817e+02
2.471332e+03,3.737969e+02
2.482903e+03,3.639202e+02
2.494474e+03,3.574677e+02
2.506044e+03,3.580823e+02
2.517615e+03,3.526653e+02
2.529186e+03,3.443463e+02
2.540757e+03,3.470186e+02
2.552328e+03,3.484408e+02
2.563898e+03,3.579977e+02
2.575469e+03,3.471936e+02
2.587040e+03,3.356966e+02
2.598611e+03,3.332598e+02
2.610182e+03,3.335361e+02
2.621752e+03,3.295254e+02
2.633323e+03,3.260826e+02
2.644894e+03,3.197888e+02
2.656465e+03,3.252923e+02
2.668036e+03,3.124798e+02
2.679606e+03,3.139375e+02
2.691177e+03,3.127977e+02
2.702748e+03,3.160253e+02
2.714319e+03,3.085646e+02
2.725890e+03,3.010443e+02
2.737460e+03,2.940579e+02
2.749031e+03,2.912734e+02
2.760602e+03,3.049802e+02
2.772173e+03,3.077970e+02
2.783744e+03,2.924047e+02
2.795314e+03,2.892775e+02
2.806885e+03,2.879594e+02
2.818456e+03,2.746953e+02
2.830027e+03,2.884011e+02
2.841598e+03,3.166522e+02
2.853168e+03,3.217094e+02
2.864739e+03,3.013449e+02
2.876310e+03,3.062323e+02
2.887881e+03,3.121044e+02
2.899452e+03,3.126515e+02
2.911022e+03,3.004278e+02
2.922593e+03,2.830390e+02
2.934164e+03,2.746432e+02
2.945735e+03,2.781180e+02
2.957306e+03,2.866926e+02
2.968876e+03,2.795753e+02
2.980447e+03,2.752362e+02
2.992018e+03,2.592063e+02
3.003589e+03,2.601572e+02
3.015160e+03,2.531128e+02
3.026730e+03,2.579240e+02
3.038301e+03,2.603392e+02
3.049872e+03,2.570796e+02
3.061443e+03,2.675828e+02
3.073014e+03,2.540773e+02
3.084584e+03,2.421855e+02
3.096155e+03,2.608299e+02
3.107726e+03,2.478174e+02
3.119297e+03,2.608310e+02
3.130868e+03,2.576654e+02
3.142438e+03,2.523343e+02
3.154009e+03,2.738929e+02
3.165580e+03,2.484527e+02
3.177151e+03,2.666978e+02
3.188722e+03,2.221747e+02
3.200292e+03,2.743605e+02
3.211863e+03,0.000000e+00
3.223434e+03,0.000000e+00
3.235005e+03,0.000000e+00
3.246576e+03,0.000000e+00
3.258146e+03,0.000000e+00
3.269717e+03,0.000000e+00
3.281288e+03,0.000000e+00
3.292859e+03,0.000000e+00
3.304430e+03,0.000000e+00
3.316000e+03,0.000000e+00
3.327571e+03,0.000000e+00
3.339142e+03,0.000000e+00
3.350713e+03,0.000000e+00
3.362284e+03,0.000000e+00
3.373854e+03,0.000000e+00
3.385425e+03,0.000000e+00
3.396996e+03,0.000000e+00
3.408567e+03,0.000000e+00
3.420138e+03,0.000000e+00
3.431708e+03,0.000000e+00
3.443279e+03,0.000000e+00
3.454850e+03,0.000000e+00
3.466421e+03,0.000000e+00
3.477992e+03,0.000000e+00
3.489563e+03,0.000000e+00
3.500169e+03,0.000000e+00