Folder: Taff_Bargoed_microplastics_data/RAMAN_data/14032024_r1

Note: README.md
# Taff_Bargoed_microplastics_data

File: black fibre1.CSV
9.931763e+01,0.000000e+00
1.108884e+02,0.000000e+00
1.224592e+02,0.000000e+00
1.340300e+02,0.000000e+00
1.456008e+02,0.000000e+00
1.571716e+02,0.000000e+00
1.687424e+02,0.000000e+00
1.803132e+02,0.000000e+00
1.918840e+02,0.000000e+00
2.034548e+02,7.236904e+03
2.150256e+02,7.295139e+03
2.265964e+02,7.290187e+03
2.381673e+02,7.381936e+03
2.497381e+02,7.391780e+03
2.613088e+02,7.436562e+03
2.728796e+02,7.467629e+03
2.844504e+02,7.508408e+03
2.960212e+02,7.554420e+03
3.075920e+02,7.573136e+03
3.191628e+02,7.609525e+03
3.307336e+02,7.637408e+03
3.423044e+02,7.679110e+03
3.538752e+02,7.678402e+03
3.654461e+02,7.684870e+03
3.770169e+02,7.743822e+03
3.885877e+02,7.725570e+03
4.001585e+02,7.736924e+03
4.117293e+02,7.752342e+03
4.233001e+02,7.769136e+03
4.348709e+02,7.778085e+03
4.464417e+02,7.816183e+03
4.580125e+02,7.782827e+03
4.695833e+02,7.772063e+03
4.811541e+02,7.759114e+03
4.927249e+02,7.839782e+03
5.042957e+02,7.773989e+03
5.158665e+02,7.817093e+03
5.274373e+02,7.824025e+03
5.390081e+02,7.782470e+03
5.505789e+02,7.787577e+03
5.621497e+02,7.830950e+03
5.737205e+02,7.757485e+03
5.852913e+02,7.760857e+03
5.968621e+02,7.735097e+03
6.084329e+02,7.749160e+03
6.200037e+02,7.719905e+03
6.315745e+02,7.708952e+03
6.431453e+02,7.692576e+03
6.547161e+02,7.679561e+03
6.662869e+02,7.664477e+03
6.778577e+02,7.674897e+03
6.894285e+02,7.631862e+03
7.009993e+02,7.591308e+03
7.125701e+02,7.583697e+03
7.241409e+02,7.575705e+03
7.357117e+02,7.530454e+03
7.472825e+02,7.571718e+03
7.588533e+02,7.520702e+03
7.704241e+02,7.468177e+03
7.819949e+02,7.470789e+03
7.935657e+02,7.453688e+03
8.051365e+02,7.391282e+03
8.167073e+02,7.413686e+03
8.282781e+02,7.336130e+03
8.398489e+02,7.347959e+03
8.514197e+02,7.313117e+03
8.629905e+02,7.261693e+03
8.745613e+02,7.267500e+03
8.861321e+02,7.259085e+03
8.977029e+02,7.215985e+03
9.092737e+02,7.163888e+03
9.208445e+02,7.128513e+03
9.324153e+02,7.105230e+03
9.439861e+02,7.081675e+03
9.555569e+02,7.035268e+03
9.671277e+02,7.018576e+03
9.786985e+02,6.990439e+03
9.902693e+02,6.938633e+03
1.001840e+03,6.909429e+03
1.013411e+03,6.894391e+03
1.024982e+03,6.858572e+03
1.036552e+03,6.848313e+03
1.048123e+03,6.779875e+03
1.059694e+03,6.779866e+03
1.071265e+03,6.744787e+03
1.082836e+03,6.730647e+03
1.094406e+03,6.681674e+03
1.105977e+03,6.684321e+03
1.117548e+03,6.645427e+03
1.129119e+03,6.599384e+03
1.140690e+03,6.544271e+03
1.152261e+03,6.556622e+03
1.163831e+03,6.491010e+03
1.175402e+03,6.449444e+03
1.186973e+03,6.402640e+03
1.198544e+03,6.404537e+03
1.210115e+03,6.367842e+03
1.221685e+03,6.330628e+03
1.233256e+03,6.281792e+03
1.244827e+03,6.248928e+03
1.256398e+03,6.220903e+03
1.267969e+03,6.183818e+03
1.279539e+03,6.190407e+03
1.291110e+03,6.148080e+03
1.302681e+03,6.117496e+03
1.314252e+03,6.047386e+03
1.325823e+03,6.043146e+03
1.337393e+03,6.023259e+03
1.348964e+03,5.984657e+03
1.360535e+03,5.923826e+03
1.372106e+03,5.917359e+03
1.383677e+03,5.899750e+03
1.395247e+03,5.842431e+03
1.406818e+03,5.797225e+03
1.418389e+03,5.772310e+03
1.429960e+03,5.778581e+03
1.441531e+03,5.704225e+03
1.453101e+03,5.675284e+03
1.464672e+03,5.675696e+03
1.476243e+03,5.642673e+03
1.487814e+03,5.597057e+03
1.499385e+03,5.547372e+03
1.510955e+03,5.525927e+03
1.522526e+03,5.508979e+03
1.534097e+03,5.434421e+03
1.545668e+03,5.409318e+03
1.557239e+03,5.415993e+03
1.568809e+03,5.387259e+03
1.580380e+03,5.352981e+03
1.591951e+03,5.300626e+03
1.603522e+03,5.301142e+03
1.615093e+03,5.250351e+03
1.626663e+03,5.179092e+03
1.638234e+03,5.185797e+03
1.649805e+03,5.143147e+03
1.661376e+03,5.087351e+03
1.672947e+03,5.054339e+03
1.684517e+03,5.015731e+03
1.696088e+03,4.971384e+03
1.707659e+03,4.948875e+03
1.719230e+03,4.897780e+03
1.730801e+03,4.866383e+03
1.742371e+03,4.857231e+03
1.753942e+03,4.787820e+03
1.765513e+03,4.765669e+03
1.777084e+03,4.734992e+03
1.788655e+03,4.711375e+03
1.800225e+03,4.684636e+03
1.811796e+03,4.684839e+03
1.823367e+03,4.589412e+03
1.834938e+03,4.580286e+03
1.846509e+03,4.535875e+03
1.858079e+03,4.534052e+03
1.869650e+03,4.466946e+03
1.881221e+03,4.449563e+03
1.892792e+03,4.413925e+03
1.904363e+03,4.366918e+03
1.915933e+03,4.330718e+03
1.927504e+03,4.320657e+03
1.939075e+03,4.287842e+03
1.950646e+03,4.222423e+03
1.962217e+03,4.194417e+03
1.973787e+03,4.147245e+03
1.985358e+03,4.131299e+03
1.996929e+03,4.097645e+03
2.008500e+03,4.052565e+03
2.020071e+03,4.000817e+03
2.031641e+03,3.990817e+03
2.043212e+03,3.935668e+03
2.054783e+03,3.914984e+03
2.066354e+03,3.865879e+03
2.077925e+03,3.837270e+03
2.089496e+03,3.786730e+03
2.101066e+03,3.724434e+03
2.112637e+03,3.733872e+03
2.124208e+03,3.702881e+03
2.135779e+03,3.631395e+03
2.147350e+03,3.606083e+03
2.158920e+03,3.574836e+03
2.170491e+03,3.566246e+03
2.182062e+03,3.505202e+03
2.193633e+03,3.477366e+03
2.205204e+03,3.441105e+03
2.216774e+03,3.418343e+03
2.228345e+03,3.338677e+03
2.239916e+03,3.316434e+03
2.251487e+03,3.279147e+03
2.263058e+03,3.252057e+03
2.274628e+03,3.214223e+03
2.286199e+03,3.145835e+03
2.297770e+03,3.130778e+03
2.309341e+03,3.091926e+03
2.320912e+03,3.040396e+03
2.332482e+03,3.018450e+03
2.344053e+03,3.012479e+03
2.355624e+03,2.966752e+03
2.367195e+03,2.901205e+03
2.378766e+03,2.889931e+03
2.390336e+03,2.861013e+03
2.401907e+03,2.838545e+03
2.413478e+03,2.779388e+03
2.425049e+03,2.810183e+03
2.436620e+03,2.726761e+03
2.448190e+03,2.706166e+03
2.459761e+03,2.679966e+03
2.471332e+03,2.627930e+03
2.482903e+03,2.639098e+03
2.494474e+03,2.574886e+03
2.506044e+03,2.546564e+03
2.517615e+03,2.544987e+03
2.529186e+03,2.523387e+03
2.540757e+03,2.491728e+03
2.552328e+03,2.460899e+03
2.563898e+03,2.464827e+03
2.575469e+03,2.426793e+03
2.587040e+03,2.392516e+03
2.598611e+03,2.364389e+03
2.610182e+03,2.358746e+03
2.621752e+03,2.302993e+03
2.633323e+03,2.272725e+03
2.644894e+03,2.266581e+03
2.656465e+03,2.257270e+03
2.668036e+03,2.214872e+03
2.679606e+03,2.195860e+03
2.691177e+03,2.173290e+03
2.702748e+03,2.155009e+03
2.714319e+03,2.155477e+03
2.725890e+03,2.136513e+03
2.737460e+03,2.092573e+03
2.749031e+03,2.096763e+03
2.760602e+03,2.055759e+03
2.772173e+03,2.053521e+03
2.783744e+03,2.003408e+03
2.795314e+03,2.007157e+03
2.806885e+03,2.013808e+03
2.818456e+03,1.971240e+03
2.830027e+03,1.954570e+03
2.841598e+03,1.979048e+03
2.853168e+03,1.950112e+03
2.864739e+03,1.920943e+03
2.876310e+03,1.904478e+03
2.887881e+03,1.932775e+03
2.899452e+03,1.896555e+03
2.911022e+03,1.864604e+03
2.922593e+03,1.840579e+03
2.934164e+03,1.836299e+03
2.945735e+03,1.782020e+03
2.957306e+03,1.830514e+03
2.968876e+03,1.799325e+03
2.980447e+03,1.780557e+03
2.992018e+03,1.730763e+03
3.003589e+03,1.761270e+03
3.015160e+03,1.697165e+03
3.026730e+03,1.689375e+03
3.038301e+03,1.716307e+03
3.049872e+03,1.658783e+03
3.061443e+03,1.693350e+03
3.073014e+03,1.671518e+03
3.084584e+03,1.648121e+03
3.096155e+03,1.649299e+03
3.107726e+03,1.605836e+03
3.119297e+03,1.695824e+03
3.130868e+03,1.600844e+03
3.142438e+03,1.623305e+03
3.154009e+03,1.629583e+03
3.165580e+03,1.629559e+03
3.177151e+03,1.599367e+03
3.188722e+03,1.592482e+03
3.200292e+03,1.686018e+03
3.211863e+03,0.000000e+00
3.223434e+03,0.000000e+00
3.235005e+03,0.000000e+00
3.246576e+03,0.000000e+00
3.258146e+03,0.000000e+00
3.269717e+03,0.000000e+00
3.281288e+03,0.000000e+00
3.292859e+03,0.000000e+00
3.304430e+03,0.000000e+00
3.316000e+03,0.000000e+00
3.327571e+03,0.000000e+00
3.339142e+03,0.000000e+00
3.350713e+03,0.000000e+00
3.362284e+03,0.000000e+00
3.373854e+03,0.000000e+00
3.385425e+03,0.000000e+00
3.396996e+03,0.000000e+00
3.408567e+03,0.000000e+00
3.420138e+03,0.000000e+00
3.431708e+03,0.000000e+00
3.443279e+03,0.000000e+00
3.454850e+03,0.000000e+00
3.466421e+03,0.000000e+00
3.477992e+03,0.000000e+00
3.489563e+03,0.000000e+00
3.500169e+03,0.000000e+00

File: black fibre2.CSV
9.931763e+01,0.000000e+00
1.108884e+02,0.000000e+00
1.224592e+02,0.000000e+00
1.340300e+02,0.000000e+00
1.456008e+02,0.000000e+00
1.571716e+02,0.000000e+00
1.687424e+02,0.000000e+00
1.803132e+02,0.000000e+00
1.918840e+02,0.000000e+00
2.034548e+02,4.107752e+03
2.150256e+02,4.102411e+03
2.265964e+02,4.142580e+03
2.381673e+02,4.175166e+03
2.497381e+02,4.194596e+03
2.613088e+02,4.220656e+03
2.728796e+02,4.248626e+03
2.844504e+02,4.288180e+03
2.960212e+02,4.284309e+03
3.075920e+02,4.306122e+03
3.191628e+02,4.326917e+03
3.307336e+02,4.370679e+03
3.423044e+02,4.378930e+03
3.538752e+02,4.377925e+03
3.654461e+02,4.433141e+03
3.770169e+02,4.465185e+03
3.885877e+02,4.472530e+03
4.001585e+02,4.471203e+03
4.117293e+02,4.479292e+03
4.233001e+02,4.481405e+03
4.348709e+02,4.524266e+03
4.464417e+02,4.519671e+03
4.580125e+02,4.536850e+03
4.695833e+02,4.554175e+03
4.811541e+02,4.587596e+03
4.927249e+02,4.641545e+03
5.042957e+02,4.597883e+03
5.158665e+02,4.595750e+03
5.274373e+02,4.603024e+03
5.390081e+02,4.583750e+03
5.505789e+02,4.604850e+03
5.621497e+02,4.609510e+03
5.737205e+02,4.627175e+03
5.852913e+02,4.650796e+03
5.968621e+02,4.658948e+03
6.084329e+02,4.659817e+03
6.200037e+02,4.633341e+03
6.315745e+02,4.662980e+03
6.431453e+02,4.635977e+03
6.547161e+02,4.657417e+03
6.662869e+02,4.656561e+03
6.778577e+02,4.646991e+03
6.894285e+02,4.633681e+03
7.009993e+02,4.648686e+03
7.125701e+02,4.637796e+03
7.241409e+02,4.620153e+03
7.357117e+02,4.628057e+03
7.472825e+02,4.661917e+03
7.588533e+02,4.632211e+03
7.704241e+02,4.593367e+03
7.819949e+02,4.608743e+03
7.935657e+02,4.621330e+03
8.051365e+02,4.593649e+03
8.167073e+02,4.590375e+03
8.282781e+02,4.584771e+03
8.398489e+02,4.575434e+03
8.514197e+02,4.557397e+03
8.629905e+02,4.580187e+03
8.745613e+02,4.569398e+03
8.861321e+02,4.557780e+03
8.977029e+02,4.545146e+03
9.092737e+02,4.520008e+03
9.208445e+02,4.522183e+03
9.324153e+02,4.482503e+03
9.439861e+02,4.482132e+03
9.555569e+02,4.453588e+03
9.671277e+02,4.444332e+03
9.786985e+02,4.430555e+03
9.902693e+02,4.407128e+03
1.001840e+03,4.393606e+03
1.013411e+03,4.380761e+03
1.024982e+03,4.368075e+03
1.036552e+03,4.383917e+03
1.048123e+03,4.341845e+03
1.059694e+03,4.311670e+03
1.071265e+03,4.339071e+03
1.082836e+03,4.315081e+03
1.094406e+03,4.319562e+03
1.105977e+03,4.291544e+03
1.117548e+03,4.327577e+03
1.129119e+03,4.303833e+03
1.140690e+03,4.285357e+03
1.152261e+03,4.300864e+03
1.163831e+03,4.227829e+03
1.175402e+03,4.190199e+03
1.186973e+03,4.186571e+03
1.198544e+03,4.181351e+03
1.210115e+03,4.162660e+03
1.221685e+03,4.134817e+03
1.233256e+03,4.076751e+03
1.244827e+03,4.087149e+03
1.256398e+03,4.052695e+03
1.267969e+03,4.070881e+03
1.279539e+03,4.088003e+03
1.291110e+03,4.048785e+03
1.302681e+03,4.001048e+03
1.314252e+03,3.980809e+03
1.325823e+03,3.955992e+03
1.337393e+03,4.003219e+03
1.348964e+03,3.973705e+03
1.360535e+03,3.896626e+03
1.372106e+03,3.904078e+03
1.383677e+03,3.863254e+03
1.395247e+03,3.819885e+03
1.406818e+03,3.787045e+03
1.418389e+03,3.808645e+03
1.429960e+03,3.770864e+03
1.441531e+03,3.726706e+03
1.453101e+03,3.695405e+03
1.464672e+03,3.660717e+03
1.476243e+03,3.665297e+03
1.487814e+03,3.647161e+03
1.499385e+03,3.621589e+03
1.510955e+03,3.587833e+03
1.522526e+03,3.569871e+03
1.534097e+03,3.556030e+03
1.545668e+03,3.537216e+03
1.557239e+03,3.550693e+03
1.568809e+03,3.567167e+03
1.580380e+03,3.575969e+03
1.591951e+03,3.518406e+03
1.603522e+03,3.477422e+03
1.615093e+03,3.451391e+03
1.626663e+03,3.409124e+03
1.638234e+03,3.382437e+03
1.649805e+03,3.350677e+03
1.661376e+03,3.317956e+03
1.672947e+03,3.292906e+03
1.684517e+03,3.279499e+03
1.696088e+03,3.251948e+03
1.707659e+03,3.234909e+03
1.719230e+03,3.210325e+03
1.730801e+03,3.211915e+03
1.742371e+03,3.198202e+03
1.753942e+03,3.174110e+03
1.765513e+03,3.146904e+03
1.777084e+03,3.136699e+03
1.788655e+03,3.117338e+03
1.800225e+03,3.068059e+03
1.811796e+03,3.164810e+03
1.823367e+03,3.065298e+03
1.834938e+03,3.044855e+03
1.846509e+03,2.999440e+03
1.858079e+03,2.982899e+03
1.869650e+03,2.950176e+03
1.881221e+03,2.932571e+03
1.892792e+03,2.933454e+03
1.904363e+03,2.889415e+03
1.915933e+03,2.878560e+03
1.927504e+03,2.843415e+03
1.939075e+03,2.833898e+03
1.950646e+03,2.814787e+03
1.962217e+03,2.787522e+03
1.973787e+03,2.773571e+03
1.985358e+03,2.753416e+03
1.996929e+03,2.712762e+03
2.008500e+03,2.701282e+03
2.020071e+03,2.682736e+03
2.031641e+03,2.647428e+03
2.043212e+03,2.632947e+03
2.054783e+03,2.600585e+03
2.066354e+03,2.569825e+03
2.077925e+03,2.550310e+03
2.089496e+03,2.536328e+03
2.101066e+03,2.537038e+03
2.112637e+03,2.482763e+03
2.124208e+03,2.476179e+03
2.135779e+03,2.451282e+03
2.147350e+03,2.422159e+03
2.158920e+03,2.386233e+03
2.170491e+03,2.380643e+03
2.182062e+03,2.367128e+03
2.193633e+03,2.324399e+03
2.205204e+03,2.304815e+03
2.216774e+03,2.289086e+03
2.228345e+03,2.257812e+03
2.239916e+03,2.236704e+03
2.251487e+03,2.217117e+03
2.263058e+03,2.189177e+03
2.274628e+03,2.169501e+03
2.286199e+03,2.141156e+03
2.297770e+03,2.123001e+03
2.309341e+03,2.092028e+03
2.320912e+03,2.100251e+03
2.332482e+03,2.056499e+03
2.344053e+03,2.053031e+03
2.355624e+03,2.024682e+03
2.367195e+03,2.000247e+03
2.378766e+03,1.980383e+03
2.390336e+03,1.970747e+03
2.401907e+03,1.949763e+03
2.413478e+03,1.925400e+03
2.425049e+03,1.902084e+03
2.436620e+03,1.864928e+03
2.448190e+03,1.879591e+03
2.459761e+03,1.852329e+03
2.471332e+03,1.826952e+03
2.482903e+03,1.817717e+03
2.494474e+03,1.794474e+03
2.506044e+03,1.783111e+03
2.517615e+03,1.759976e+03
2.529186e+03,1.744327e+03
2.540757e+03,1.727051e+03
2.552328e+03,1.702536e+03
2.563898e+03,1.714964e+03
2.575469e+03,1.678922e+03
2.587040e+03,1.661701e+03
2.598611e+03,1.646046e+03
2.610182e+03,1.634796e+03
2.621752e+03,1.627268e+03
2.633323e+03,1.615852e+03
2.644894e+03,1.575793e+03
2.656465e+03,1.576683e+03
2.668036e+03,1.570281e+03
2.679606e+03,1.534464e+03
2.691177e+03,1.534340e+03
2.702748e+03,1.525920e+03
2.714319e+03,1.535679e+03
2.725890e+03,1.503057e+03
2.737460e+03,1.485567e+03
2.749031e+03,1.493516e+03
2.760602e+03,1.454782e+03
2.772173e+03,1.453195e+03
2.783744e+03,1.439070e+03
2.795314e+03,1.427922e+03
2.806885e+03,1.404383e+03
2.818456e+03,1.411007e+03
2.830027e+03,1.393744e+03
2.841598e+03,1.403204e+03
2.853168e+03,1.397335e+03
2.864739e+03,1.386101e+03
2.876310e+03,1.367568e+03
2.887881e+03,1.390092e+03
2.899452e+03,1.368476e+03
2.911022e+03,1.367355e+03
2.922593e+03,1.337664e+03
2.934164e+03,1.328303e+03
2.945735e+03,1.304835e+03
2.957306e+03,1.328563e+03
2.968876e+03,1.260802e+03
2.980447e+03,1.233081e+03
2.992018e+03,1.256162e+03
3.003589e+03,1.210975e+03
3.015160e+03,1.226279e+03
3.026730e+03,1.212375e+03
3.038301e+03,1.214239e+03
3.049872e+03,1.200800e+03
3.061443e+03,1.217465e+03
3.073014e+03,1.188986e+03
3.084584e+03,1.188893e+03
3.096155e+03,1.185244e+03
3.107726e+03,1.234929e+03
3.119297e+03,1.199245e+03
3.130868e+03,1.161091e+03
3.142438e+03,1.145379e+03
3.154009e+03,1.171043e+03
3.165580e+03,1.192541e+03
3.177151e+03,1.121505e+03
3.188722e+03,1.159868e+03
3.200292e+03,1.176570e+03
3.211863e+03,0.000000e+00
3.223434e+03,0.000000e+00
3.235005e+03,0.000000e+00
3.246576e+03,0.000000e+00
3.258146e+03,0.000000e+00
3.269717e+03,0.000000e+00
3.281288e+03,0.000000e+00
3.292859e+03,0.000000e+00
3.304430e+03,0.000000e+00
3.316000e+03,0.000000e+00
3.327571e+03,0.000000e+00
3.339142e+03,0.000000e+00
3.350713e+03,0.000000e+00
3.362284e+03,0.000000e+00
3.373854e+03,0.000000e+00
3.385425e+03,0.000000e+00
3.396996e+03,0.000000e+00
3.408567e+03,0.000000e+00
3.420138e+03,0.000000e+00
3.431708e+03,0.000000e+00
3.443279e+03,0.000000e+00
3.454850e+03,0.000000e+00
3.466421e+03,0.000000e+00
3.477992e+03,0.000000e+00
3.489563e+03,0.000000e+00
3.500169e+03,0.000000e+00

File: black fibre4.CSV
9.931763e+01,0.000000e+00
1.108884e+02,0.000000e+00
1.224592e+02,0.000000e+00
1.340300e+02,0.000000e+00
1.456008e+02,0.000000e+00
1.571716e+02,0.000000e+00
1.687424e+02,0.000000e+00
1.803132e+02,0.000000e+00
1.918840e+02,0.000000e+00
2.034548e+02,2.089483e+03
2.150256e+02,2.085446e+03
2.265964e+02,2.066313e+03
2.381673e+02,2.073510e+03
2.497381e+02,2.073063e+03
2.613088e+02,2.062437e+03
2.728796e+02,2.062800e+03
2.844504e+02,2.051047e+03
2.960212e+02,2.040181e+03
3.075920e+02,2.039185e+03
3.191628e+02,2.029993e+03
3.307336e+02,2.012934e+03
3.423044e+02,2.016423e+03
3.538752e+02,2.001988e+03
3.654461e+02,1.986201e+03
3.770169e+02,2.018720e+03
3.885877e+02,1.987660e+03
4.001585e+02,1.971623e+03
4.117293e+02,1.978362e+03
4.233001e+02,1.964784e+03
4.348709e+02,1.961189e+03
4.464417e+02,1.931686e+03
4.580125e+02,1.936264e+03
4.695833e+02,1.903327e+03
4.811541e+02,1.902997e+03
4.927249e+02,1.900793e+03
5.042957e+02,1.874323e+03
5.158665e+02,1.892414e+03
5.274373e+02,1.873951e+03
5.390081e+02,1.861149e+03
5.505789e+02,1.850252e+03
5.621497e+02,1.853180e+03
5.737205e+02,1.830565e+03
5.852913e+02,1.824256e+03
5.968621e+02,1.802822e+03
6.084329e+02,1.803103e+03
6.200037e+02,1.788838e+03
6.315745e+02,1.781621e+03
6.431453e+02,1.760654e+03
6.547161e+02,1.766193e+03
6.662869e+02,1.754994e+03
6.778577e+02,1.748329e+03
6.894285e+02,1.736852e+03
7.009993e+02,1.723226e+03
7.125701e+02,1.713369e+03
7.241409e+02,1.709315e+03
7.357117e+02,1.689160e+03
7.472825e+02,1.689537e+03
7.588533e+02,1.650765e+03
7.704241e+02,1.651762e+03
7.819949e+02,1.646120e+03
7.935657e+02,1.641203e+03
8.051365e+02,1.624201e+03
8.167073e+02,1.625520e+03
8.282781e+02,1.609892e+03
8.398489e+02,1.603454e+03
8.514197e+02,1.597793e+03
8.629905e+02,1.592932e+03
8.745613e+02,1.587922e+03
8.861321e+02,1.567313e+03
8.977029e+02,1.551349e+03
9.092737e+02,1.548016e+03
9.208445e+02,1.530514e+03
9.324153e+02,1.545932e+03
9.439861e+02,1.525809e+03
9.555569e+02,1.522593e+03
9.671277e+02,1.525230e+03
9.786985e+02,1.504288e+03
9.902693e+02,1.503732e+03
1.001840e+03,1.495502e+03
1.013411e+03,1.469934e+03
1.024982e+03,1.474642e+03
1.036552e+03,1.464364e+03
1.048123e+03,1.454868e+03
1.059694e+03,1.462676e+03
1.071265e+03,1.471327e+03
1.082836e+03,1.482063e+03
1.094406e+03,1.508128e+03
1.105977e+03,1.488211e+03
1.117548e+03,1.504725e+03
1.129119e+03,1.472242e+03
1.140690e+03,1.453429e+03
1.152261e+03,1.460664e+03
1.163831e+03,1.459054e+03
1.175402e+03,1.428867e+03
1.186973e+03,1.409358e+03
1.198544e+03,1.404046e+03
1.210115e+03,1.402007e+03
1.221685e+03,1.396777e+03
1.233256e+03,1.389410e+03
1.244827e+03,1.402455e+03
1.256398e+03,1.395783e+03
1.267969e+03,1.384741e+03
1.279539e+03,1.404735e+03
1.291110e+03,1.388436e+03
1.302681e+03,1.382972e+03
1.314252e+03,1.398735e+03
1.325823e+03,1.395145e+03
1.337393e+03,1.380277e+03
1.348964e+03,1.361722e+03
1.360535e+03,1.351324e+03
1.372106e+03,1.364216e+03
1.383677e+03,1.348964e+03
1.395247e+03,1.330321e+03
1.406818e+03,1.313881e+03
1.418389e+03,1.308593e+03
1.429960e+03,1.300833e+03
1.441531e+03,1.287144e+03
1.453101e+03,1.277400e+03
1.464672e+03,1.264990e+03
1.476243e+03,1.255881e+03
1.487814e+03,1.242102e+03
1.499385e+03,1.231557e+03
1.510955e+03,1.228548e+03
1.522526e+03,1.218846e+03
1.534097e+03,1.206157e+03
1.545668e+03,1.206261e+03
1.557239e+03,1.208699e+03
1.568809e+03,1.207633e+03
1.580380e+03,1.214193e+03
1.591951e+03,1.180929e+03
1.603522e+03,1.175269e+03
1.615093e+03,1.171548e+03
1.626663e+03,1.143400e+03
1.638234e+03,1.133514e+03
1.649805e+03,1.121248e+03
1.661376e+03,1.108541e+03
1.672947e+03,1.096334e+03
1.684517e+03,1.091385e+03
1.696088e+03,1.091065e+03
1.707659e+03,1.081447e+03
1.719230e+03,1.074558e+03
1.730801e+03,1.068097e+03
1.742371e+03,1.049473e+03
1.753942e+03,1.042060e+03
1.765513e+03,1.030756e+03
1.777084e+03,1.007632e+03
1.788655e+03,1.006355e+03
1.800225e+03,1.000154e+03
1.811796e+03,9.946364e+02
1.823367e+03,9.795765e+02
1.834938e+03,9.893329e+02
1.846509e+03,9.773397e+02
1.858079e+03,9.687920e+02
1.869650e+03,9.524222e+02
1.881221e+03,9.372357e+02
1.892792e+03,9.309328e+02
1.904363e+03,9.126057e+02
1.915933e+03,9.146381e+02
1.927504e+03,8.978161e+02
1.939075e+03,8.942955e+02
1.950646e+03,8.844063e+02
1.962217e+03,8.858447e+02
1.973787e+03,8.622166e+02
1.985358e+03,8.723301e+02
1.996929e+03,8.561484e+02
2.008500e+03,8.458601e+02
2.020071e+03,8.390010e+02
2.031641e+03,8.292171e+02
2.043212e+03,8.246240e+02
2.054783e+03,8.089794e+02
2.066354e+03,8.083691e+02
2.077925e+03,7.825562e+02
2.089496e+03,7.736599e+02
2.101066e+03,7.730158e+02
2.112637e+03,7.584155e+02
2.124208e+03,7.580256e+02
2.135779e+03,7.472099e+02
2.147350e+03,7.396843e+02
2.158920e+03,7.356488e+02
2.170491e+03,7.337219e+02
2.182062e+03,7.290142e+02
2.193633e+03,7.089854e+02
2.205204e+03,7.008079e+02
2.216774e+03,6.945689e+02
2.228345e+03,6.818237e+02
2.239916e+03,6.843124e+02
2.251487e+03,6.628594e+02
2.263058e+03,6.657346e+02
2.274628e+03,6.679559e+02
2.286199e+03,6.588202e+02
2.297770e+03,6.506910e+02
2.309341e+03,6.367048e+02
2.320912e+03,6.364085e+02
2.332482e+03,6.301949e+02
2.344053e+03,6.233817e+02
2.355624e+03,6.129676e+02
2.367195e+03,5.978885e+02
2.378766e+03,5.997610e+02
2.390336e+03,5.881185e+02
2.401907e+03,5.869907e+02
2.413478e+03,5.811245e+02
2.425049e+03,5.765065e+02
2.436620e+03,5.749594e+02
2.448190e+03,5.704361e+02
2.459761e+03,5.620120e+02
2.471332e+03,5.483589e+02
2.482903e+03,5.565203e+02
2.494474e+03,5.574369e+02
2.506044e+03,5.483250e+02
2.517615e+03,5.394301e+02
2.529186e+03,5.316569e+02
2.540757e+03,5.285819e+02
2.552328e+03,5.259045e+02
2.563898e+03,5.354577e+02
2.575469e+03,5.174285e+02
2.587040e+03,5.201572e+02
2.598611e+03,5.173026e+02
2.610182e+03,4.945453e+02
2.621752e+03,5.033536e+02
2.633323e+03,5.008621e+02
2.644894e+03,4.850775e+02
2.656465e+03,4.984688e+02
2.668036e+03,4.926058e+02
2.679606e+03,4.845765e+02
2.691177e+03,4.910247e+02
2.702748e+03,4.677477e+02
2.714319e+03,4.724155e+02
2.725890e+03,4.588214e+02
2.737460e+03,4.667800e+02
2.749031e+03,4.705852e+02
2.760602e+03,4.579746e+02
2.772173e+03,4.664843e+02
2.783744e+03,4.634029e+02
2.795314e+03,4.491968e+02
2.806885e+03,4.440055e+02
2.818456e+03,4.553769e+02
2.830027e+03,4.390128e+02
2.841598e+03,4.496597e+02
2.853168e+03,4.598253e+02
2.864739e+03,4.472816e+02
2.876310e+03,4.741492e+02
2.887881e+03,4.654860e+02
2.899452e+03,5.153268e+02
2.911022e+03,4.839900e+02
2.922593e+03,4.572026e+02
2.934164e+03,4.341797e+02
2.945735e+03,4.633268e+02
2.957306e+03,4.656662e+02
2.968876e+03,4.335220e+02
2.980447e+03,4.244303e+02
2.992018e+03,4.176527e+02
3.003589e+03,4.162550e+02
3.015160e+03,3.960573e+02
3.026730e+03,4.108757e+02
3.038301e+03,4.010450e+02
3.049872e+03,3.911862e+02
3.061443e+03,3.973407e+02
3.073014e+03,3.710612e+02
3.084584e+03,4.074217e+02
3.096155e+03,4.061300e+02
3.107726e+03,3.951546e+02
3.119297e+03,3.744859e+02
3.130868e+03,4.004883e+02
3.142438e+03,4.057765e+02
3.154009e+03,4.089201e+02
3.165580e+03,3.884350e+02
3.177151e+03,4.119336e+02
3.188722e+03,4.121522e+02
3.200292e+03,4.270090e+02
3.211863e+03,0.000000e+00
3.223434e+03,0.000000e+00
3.235005e+03,0.000000e+00
3.246576e+03,0.000000e+00
3.258146e+03,0.000000e+00
3.269717e+03,0.000000e+00
3.281288e+03,0.000000e+00
3.292859e+03,0.000000e+00
3.304430e+03,0.000000e+00
3.316000e+03,0.000000e+00
3.327571e+03,0.000000e+00
3.339142e+03,0.000000e+00
3.350713e+03,0.000000e+00
3.362284e+03,0.000000e+00
3.373854e+03,0.000000e+00
3.385425e+03,0.000000e+00
3.396996e+03,0.000000e+00
3.408567e+03,0.000000e+00
3.420138e+03,0.000000e+00
3.431708e+03,0.000000e+00
3.443279e+03,0.000000e+00
3.454850e+03,0.000000e+00
3.466421e+03,0.000000e+00
3.477992e+03,0.000000e+00
3.489563e+03,0.000000e+00
3.500169e+03,0.000000e+00