Folder: Taff_Bargoed_microplastics_data/RAMAN_data/19072023_r1

Note: README.md
# Taff_Bargoed_microplastics_data

File: black fibre1.CSV
9.931763e+01,0.000000e+00
1.108884e+02,0.000000e+00
1.224592e+02,0.000000e+00
1.340300e+02,0.000000e+00
1.456008e+02,0.000000e+00
1.571716e+02,0.000000e+00
1.687424e+02,0.000000e+00
1.803132e+02,0.000000e+00
1.918840e+02,0.000000e+00
2.034548e+02,4.963451e+03
2.150256e+02,4.985072e+03
2.265964e+02,4.994905e+03
2.381673e+02,5.050499e+03
2.497381e+02,5.063143e+03
2.613088e+02,5.076623e+03
2.728796e+02,5.108290e+03
2.844504e+02,5.112576e+03
2.960212e+02,5.137382e+03
3.075920e+02,5.151616e+03
3.191628e+02,5.165400e+03
3.307336e+02,5.193903e+03
3.423044e+02,5.222799e+03
3.538752e+02,5.229370e+03
3.654461e+02,5.221328e+03
3.770169e+02,5.274138e+03
3.885877e+02,5.236365e+03
4.001585e+02,5.261346e+03
4.117293e+02,5.248515e+03
4.233001e+02,5.250993e+03
4.348709e+02,5.243984e+03
4.464417e+02,5.260320e+03
4.580125e+02,5.261166e+03
4.695833e+02,5.248768e+03
4.811541e+02,5.294822e+03
4.927249e+02,5.298336e+03
5.042957e+02,5.230192e+03
5.158665e+02,5.257106e+03
5.274373e+02,5.213925e+03
5.390081e+02,5.180915e+03
5.505789e+02,5.182462e+03
5.621497e+02,5.181902e+03
5.737205e+02,5.162829e+03
5.852913e+02,5.163444e+03
5.968621e+02,5.147861e+03
6.084329e+02,5.170403e+03
6.200037e+02,5.118158e+03
6.315745e+02,5.094883e+03
6.431453e+02,5.082390e+03
6.547161e+02,5.076901e+03
6.662869e+02,5.051323e+03
6.778577e+02,5.002023e+03
6.894285e+02,5.005020e+03
7.009993e+02,4.962416e+03
7.125701e+02,4.972819e+03
7.241409e+02,4.939331e+03
7.357117e+02,4.898471e+03
7.472825e+02,4.891178e+03
7.588533e+02,4.879148e+03
7.704241e+02,4.842198e+03
7.819949e+02,4.802557e+03
7.935657e+02,4.806612e+03
8.051365e+02,4.754712e+03
8.167073e+02,4.749414e+03
8.282781e+02,4.731614e+03
8.398489e+02,4.715757e+03
8.514197e+02,4.686919e+03
8.629905e+02,4.642518e+03
8.745613e+02,4.638319e+03
8.861321e+02,4.610292e+03
8.977029e+02,4.587438e+03
9.092737e+02,4.553875e+03
9.208445e+02,4.498458e+03
9.324153e+02,4.517326e+03
9.439861e+02,4.447611e+03
9.555569e+02,4.422372e+03
9.671277e+02,4.402727e+03
9.786985e+02,4.393521e+03
9.902693e+02,4.370085e+03
1.001840e+03,4.340770e+03
1.013411e+03,4.314681e+03
1.024982e+03,4.278535e+03
1.036552e+03,4.272231e+03
1.048123e+03,4.218336e+03
1.059694e+03,4.204848e+03
1.071265e+03,4.206476e+03
1.082836e+03,4.198967e+03
1.094406e+03,4.182294e+03
1.105977e+03,4.157417e+03
1.117548e+03,4.201917e+03
1.129119e+03,4.183412e+03
1.140690e+03,4.162226e+03
1.152261e+03,4.188260e+03
1.163831e+03,4.076241e+03
1.175402e+03,4.062097e+03
1.186973e+03,4.022323e+03
1.198544e+03,3.989998e+03
1.210115e+03,3.998992e+03
1.221685e+03,3.962104e+03
1.233256e+03,3.932952e+03
1.244827e+03,3.902714e+03
1.256398e+03,3.900218e+03
1.267969e+03,3.868273e+03
1.279539e+03,3.910344e+03
1.291110e+03,3.850601e+03
1.302681e+03,3.822800e+03
1.314252e+03,3.783520e+03
1.325823e+03,3.770010e+03
1.337393e+03,3.802038e+03
1.348964e+03,3.762101e+03
1.360535e+03,3.726875e+03
1.372106e+03,3.692853e+03
1.383677e+03,3.651281e+03
1.395247e+03,3.620805e+03
1.406818e+03,3.612342e+03
1.418389e+03,3.571123e+03
1.429960e+03,3.564817e+03
1.441531e+03,3.507609e+03
1.453101e+03,3.457852e+03
1.464672e+03,3.468304e+03
1.476243e+03,3.455086e+03
1.487814e+03,3.435595e+03
1.499385e+03,3.392194e+03
1.510955e+03,3.376945e+03
1.522526e+03,3.364515e+03
1.534097e+03,3.327884e+03
1.545668e+03,3.290515e+03
1.557239e+03,3.308296e+03
1.568809e+03,3.314216e+03
1.580380e+03,3.320651e+03
1.591951e+03,3.280208e+03
1.603522e+03,3.218079e+03
1.615093e+03,3.195352e+03
1.626663e+03,3.132334e+03
1.638234e+03,3.125745e+03
1.649805e+03,3.101754e+03
1.661376e+03,3.077586e+03
1.672947e+03,3.049609e+03
1.684517e+03,3.024629e+03
1.696088e+03,2.986015e+03
1.707659e+03,2.992594e+03
1.719230e+03,2.942984e+03
1.730801e+03,2.905153e+03
1.742371e+03,2.890965e+03
1.753942e+03,2.864794e+03
1.765513e+03,2.842251e+03
1.777084e+03,2.823036e+03
1.788655e+03,2.790947e+03
1.800225e+03,2.778114e+03
1.811796e+03,2.742977e+03
1.823367e+03,2.724354e+03
1.834938e+03,2.694033e+03
1.846509e+03,2.667384e+03
1.858079e+03,2.652073e+03
1.869650e+03,2.597658e+03
1.881221e+03,2.596527e+03
1.892792e+03,2.579915e+03
1.904363e+03,2.536340e+03
1.915933e+03,2.509912e+03
1.927504e+03,2.502410e+03
1.939075e+03,2.457083e+03
1.950646e+03,2.439805e+03
1.962217e+03,2.427861e+03
1.973787e+03,2.415674e+03
1.985358e+03,2.366520e+03
1.996929e+03,2.354197e+03
2.008500e+03,2.313726e+03
2.020071e+03,2.317703e+03
2.031641e+03,2.259610e+03
2.043212e+03,2.244339e+03
2.054783e+03,2.232826e+03
2.066354e+03,2.201736e+03
2.077925e+03,2.189401e+03
2.089496e+03,2.149378e+03
2.101066e+03,2.134912e+03
2.112637e+03,2.115841e+03
2.124208e+03,2.077844e+03
2.135779e+03,2.046372e+03
2.147350e+03,2.025435e+03
2.158920e+03,2.010945e+03
2.170491e+03,1.997426e+03
2.182062e+03,1.970009e+03
2.193633e+03,1.955085e+03
2.205204e+03,1.940981e+03
2.216774e+03,1.899503e+03
2.228345e+03,1.879494e+03
2.239916e+03,1.849250e+03
2.251487e+03,1.848510e+03
2.263058e+03,1.819316e+03
2.274628e+03,1.791757e+03
2.286199e+03,1.762255e+03
2.297770e+03,1.741910e+03
2.309341e+03,1.739138e+03
2.320912e+03,1.714934e+03
2.332482e+03,1.679375e+03
2.344053e+03,1.678902e+03
2.355624e+03,1.640977e+03
2.367195e+03,1.632901e+03
2.378766e+03,1.623921e+03
2.390336e+03,1.583590e+03
2.401907e+03,1.561250e+03
2.413478e+03,1.559366e+03
2.425049e+03,1.554395e+03
2.436620e+03,1.518326e+03
2.448190e+03,1.498952e+03
2.459761e+03,1.478925e+03
2.471332e+03,1.459444e+03
2.482903e+03,1.475929e+03
2.494474e+03,1.432343e+03
2.506044e+03,1.423774e+03
2.517615e+03,1.405740e+03
2.529186e+03,1.403961e+03
2.540757e+03,1.388481e+03
2.552328e+03,1.384379e+03
2.563898e+03,1.361110e+03
2.575469e+03,1.342530e+03
2.587040e+03,1.314912e+03
2.598611e+03,1.304106e+03
2.610182e+03,1.302919e+03
2.621752e+03,1.283887e+03
2.633323e+03,1.259630e+03
2.644894e+03,1.267113e+03
2.656465e+03,1.239845e+03
2.668036e+03,1.239132e+03
2.679606e+03,1.215218e+03
2.691177e+03,1.205389e+03
2.702748e+03,1.193449e+03
2.714319e+03,1.165865e+03
2.725890e+03,1.180337e+03
2.737460e+03,1.150980e+03
2.749031e+03,1.157994e+03
2.760602e+03,1.134509e+03
2.772173e+03,1.132871e+03
2.783744e+03,1.110850e+03
2.795314e+03,1.100062e+03
2.806885e+03,1.095982e+03
2.818456e+03,1.082327e+03
2.830027e+03,1.066035e+03
2.841598e+03,1.092580e+03
2.853168e+03,1.083746e+03
2.864739e+03,1.067783e+03
2.876310e+03,1.056075e+03
2.887881e+03,1.081409e+03
2.899452e+03,1.055203e+03
2.911022e+03,1.056453e+03
2.922593e+03,1.040860e+03
2.934164e+03,1.018023e+03
2.945735e+03,1.026403e+03
2.957306e+03,1.034868e+03
2.968876e+03,9.889396e+02
2.980447e+03,9.722919e+02
2.992018e+03,9.821748e+02
3.003589e+03,9.605826e+02
3.015160e+03,9.406783e+02
3.026730e+03,9.470798e+02
3.038301e+03,9.626203e+02
3.049872e+03,9.248388e+02
3.061443e+03,9.279998e+02
3.073014e+03,9.210867e+02
3.084584e+03,9.046879e+02
3.096155e+03,9.170449e+02
3.107726e+03,8.739857e+02
3.119297e+03,8.805103e+02
3.130868e+03,9.397481e+02
3.142438e+03,9.110108e+02
3.154009e+03,9.053489e+02
3.165580e+03,9.067293e+02
3.177151e+03,9.493268e+02
3.188722e+03,9.066360e+02
3.200292e+03,9.746342e+02
3.211863e+03,0.000000e+00
3.223434e+03,0.000000e+00
3.235005e+03,0.000000e+00
3.246576e+03,0.000000e+00
3.258146e+03,0.000000e+00
3.269717e+03,0.000000e+00
3.281288e+03,0.000000e+00
3.292859e+03,0.000000e+00
3.304430e+03,0.000000e+00
3.316000e+03,0.000000e+00
3.327571e+03,0.000000e+00
3.339142e+03,0.000000e+00
3.350713e+03,0.000000e+00
3.362284e+03,0.000000e+00
3.373854e+03,0.000000e+00
3.385425e+03,0.000000e+00
3.396996e+03,0.000000e+00
3.408567e+03,0.000000e+00
3.420138e+03,0.000000e+00
3.431708e+03,0.000000e+00
3.443279e+03,0.000000e+00
3.454850e+03,0.000000e+00
3.466421e+03,0.000000e+00
3.477992e+03,0.000000e+00
3.489563e+03,0.000000e+00
3.500169e+03,0.000000e+00

File: red fibre1.CSV
9.931763e+01,0.000000e+00
1.108884e+02,0.000000e+00
1.224592e+02,0.000000e+00
1.340300e+02,0.000000e+00
1.456008e+02,0.000000e+00
1.571716e+02,0.000000e+00
1.687424e+02,0.000000e+00
1.803132e+02,0.000000e+00
1.918840e+02,0.000000e+00
2.034548e+02,3.009192e+03
2.150256e+02,3.020331e+03
2.265964e+02,3.020633e+03
2.381673e+02,3.051660e+03
2.497381e+02,3.052871e+03
2.613088e+02,3.084627e+03
2.728796e+02,3.092143e+03
2.844504e+02,3.098864e+03
2.960212e+02,3.095043e+03
3.075920e+02,3.115526e+03
3.191628e+02,3.114510e+03
3.307336e+02,3.128448e+03
3.423044e+02,3.143323e+03
3.538752e+02,3.131545e+03
3.654461e+02,3.145466e+03
3.770169e+02,3.166864e+03
3.885877e+02,3.158274e+03
4.001585e+02,3.145107e+03
4.117293e+02,3.158384e+03
4.233001e+02,3.156880e+03
4.348709e+02,3.174084e+03
4.464417e+02,3.153308e+03
4.580125e+02,3.154447e+03
4.695833e+02,3.149881e+03
4.811541e+02,3.152025e+03
4.927249e+02,3.140689e+03
5.042957e+02,3.148303e+03
5.158665e+02,3.131808e+03
5.274373e+02,3.148022e+03
5.390081e+02,3.128562e+03
5.505789e+02,3.116224e+03
5.621497e+02,3.094489e+03
5.737205e+02,3.119635e+03
5.852913e+02,3.113000e+03
5.968621e+02,3.094694e+03
6.084329e+02,3.089708e+03
6.200037e+02,3.074370e+03
6.315745e+02,3.079958e+03
6.431453e+02,3.055157e+03
6.547161e+02,3.048880e+03
6.662869e+02,3.038181e+03
6.778577e+02,3.027532e+03
6.894285e+02,3.015837e+03
7.009993e+02,3.013027e+03
7.125701e+02,3.008110e+03
7.241409e+02,2.977654e+03
7.357117e+02,2.963712e+03
7.472825e+02,2.971634e+03
7.588533e+02,2.925642e+03
7.704241e+02,2.929153e+03
7.819949e+02,2.923909e+03
7.935657e+02,2.901147e+03
8.051365e+02,2.876262e+03
8.167073e+02,2.882443e+03
8.282781e+02,2.857450e+03
8.398489e+02,2.852132e+03
8.514197e+02,2.830168e+03
8.629905e+02,2.829664e+03
8.745613e+02,2.812499e+03
8.861321e+02,2.806954e+03
8.977029e+02,2.769313e+03
9.092737e+02,2.749692e+03
9.208445e+02,2.745717e+03
9.324153e+02,2.740389e+03
9.439861e+02,2.714575e+03
9.555569e+02,2.699367e+03
9.671277e+02,2.696916e+03
9.786985e+02,2.679953e+03
9.902693e+02,2.653552e+03
1.001840e+03,2.645356e+03
1.013411e+03,2.626089e+03
1.024982e+03,2.607782e+03
1.036552e+03,2.586010e+03
1.048123e+03,2.576655e+03
1.059694e+03,2.568419e+03
1.071265e+03,2.555451e+03
1.082836e+03,2.558765e+03
1.094406e+03,2.560187e+03
1.105977e+03,2.536176e+03
1.117548e+03,2.518067e+03
1.129119e+03,2.491116e+03
1.140690e+03,2.467773e+03
1.152261e+03,2.454352e+03
1.163831e+03,2.437979e+03
1.175402e+03,2.431102e+03
1.186973e+03,2.403600e+03
1.198544e+03,2.401492e+03
1.210115e+03,2.393130e+03
1.221685e+03,2.374288e+03
1.233256e+03,2.362379e+03
1.244827e+03,2.351249e+03
1.256398e+03,2.337782e+03
1.267969e+03,2.320925e+03
1.279539e+03,2.308104e+03
1.291110e+03,2.291377e+03
1.302681e+03,2.290196e+03
1.314252e+03,2.276627e+03
1.325823e+03,2.264155e+03
1.337393e+03,2.274801e+03
1.348964e+03,2.260454e+03
1.360535e+03,2.230858e+03
1.372106e+03,2.222737e+03
1.383677e+03,2.215727e+03
1.395247e+03,2.179124e+03
1.406818e+03,2.172989e+03
1.418389e+03,2.151150e+03
1.429960e+03,2.148946e+03
1.441531e+03,2.135911e+03
1.453101e+03,2.117196e+03
1.464672e+03,2.102397e+03
1.476243e+03,2.100645e+03
1.487814e+03,2.088130e+03
1.499385e+03,2.055539e+03
1.510955e+03,2.044761e+03
1.522526e+03,2.036022e+03
1.534097e+03,2.024968e+03
1.545668e+03,2.016146e+03
1.557239e+03,1.998779e+03
1.568809e+03,1.997508e+03
1.580380e+03,1.963195e+03
1.591951e+03,1.953707e+03
1.603522e+03,1.931133e+03
1.615093e+03,1.934682e+03
1.626663e+03,1.907936e+03
1.638234e+03,1.902075e+03
1.649805e+03,1.886656e+03
1.661376e+03,1.864288e+03
1.672947e+03,1.859138e+03
1.684517e+03,1.846119e+03
1.696088e+03,1.822815e+03
1.707659e+03,1.825638e+03
1.719230e+03,1.796043e+03
1.730801e+03,1.782547e+03
1.742371e+03,1.775406e+03
1.753942e+03,1.765128e+03
1.765513e+03,1.734047e+03
1.777084e+03,1.713341e+03
1.788655e+03,1.702577e+03
1.800225e+03,1.687551e+03
1.811796e+03,1.685256e+03
1.823367e+03,1.652029e+03
1.834938e+03,1.641309e+03
1.846509e+03,1.653807e+03
1.858079e+03,1.611781e+03
1.869650e+03,1.593984e+03
1.881221e+03,1.589119e+03
1.892792e+03,1.585440e+03
1.904363e+03,1.558059e+03
1.915933e+03,1.522213e+03
1.927504e+03,1.533530e+03
1.939075e+03,1.503426e+03
1.950646e+03,1.500660e+03
1.962217e+03,1.496700e+03
1.973787e+03,1.462564e+03
1.985358e+03,1.458113e+03
1.996929e+03,1.440152e+03
2.008500e+03,1.430377e+03
2.020071e+03,1.400453e+03
2.031641e+03,1.387693e+03
2.043212e+03,1.368527e+03
2.054783e+03,1.352098e+03
2.066354e+03,1.343236e+03
2.077925e+03,1.324127e+03
2.089496e+03,1.323663e+03
2.101066e+03,1.302930e+03
2.112637e+03,1.282091e+03
2.124208e+03,1.279506e+03
2.135779e+03,1.263462e+03
2.147350e+03,1.229009e+03
2.158920e+03,1.236413e+03
2.170491e+03,1.225457e+03
2.182062e+03,1.200698e+03
2.193633e+03,1.180207e+03
2.205204e+03,1.172900e+03
2.216774e+03,1.167464e+03
2.228345e+03,1.132593e+03
2.239916e+03,1.128011e+03
2.251487e+03,1.129505e+03
2.263058e+03,1.108336e+03
2.274628e+03,1.086707e+03
2.286199e+03,1.083011e+03
2.297770e+03,1.070497e+03
2.309341e+03,1.047143e+03
2.320912e+03,1.047939e+03
2.332482e+03,1.026458e+03
2.344053e+03,1.027866e+03
2.355624e+03,1.001725e+03
2.367195e+03,9.862215e+02
2.378766e+03,9.831678e+02
2.390336e+03,9.629022e+02
2.401907e+03,9.636068e+02
2.413478e+03,9.563246e+02
2.425049e+03,9.367245e+02
2.436620e+03,9.252595e+02
2.448190e+03,9.088538e+02
2.459761e+03,9.073203e+02
2.471332e+03,8.914665e+02
2.482903e+03,8.870201e+02
2.494474e+03,8.784746e+02
2.506044e+03,8.790727e+02
2.517615e+03,8.644547e+02
2.529186e+03,8.451965e+02
2.540757e+03,8.476150e+02
2.552328e+03,8.379843e+02
2.563898e+03,8.403580e+02
2.575469e+03,8.332719e+02
2.587040e+03,8.091607e+02
2.598611e+03,7.849824e+02
2.610182e+03,7.936335e+02
2.621752e+03,7.945360e+02
2.633323e+03,7.913014e+02
2.644894e+03,7.770433e+02
2.656465e+03,7.588944e+02
2.668036e+03,7.546279e+02
2.679606e+03,7.399808e+02
2.691177e+03,7.327289e+02
2.702748e+03,7.330448e+02
2.714319e+03,7.311424e+02
2.725890e+03,7.196719e+02
2.737460e+03,7.102282e+02
2.749031e+03,6.910197e+02
2.760602e+03,7.183309e+02
2.772173e+03,6.911277e+02
2.783744e+03,6.908297e+02
2.795314e+03,6.862207e+02
2.806885e+03,6.616106e+02
2.818456e+03,6.786324e+02
2.830027e+03,6.715204e+02
2.841598e+03,6.678661e+02
2.853168e+03,6.606730e+02
2.864739e+03,6.678495e+02
2.876310e+03,6.607591e+02
2.887881e+03,6.679778e+02
2.899452e+03,6.613180e+02
2.911022e+03,6.473937e+02
2.922593e+03,6.446096e+02
2.934164e+03,6.304435e+02
2.945735e+03,6.395023e+02
2.957306e+03,6.811558e+02
2.968876e+03,6.310643e+02
2.980447e+03,6.070526e+02
2.992018e+03,5.921780e+02
3.003589e+03,5.621948e+02
3.015160e+03,5.943487e+02
3.026730e+03,5.609078e+02
3.038301e+03,5.905256e+02
3.049872e+03,5.657507e+02
3.061443e+03,5.826173e+02
3.073014e+03,5.778552e+02
3.084584e+03,5.682947e+02
3.096155e+03,5.667414e+02
3.107726e+03,5.668945e+02
3.119297e+03,5.657764e+02
3.130868e+03,5.758506e+02
3.142438e+03,5.892574e+02
3.154009e+03,5.584477e+02
3.165580e+03,6.060711e+02
3.177151e+03,5.686699e+02
3.188722e+03,5.745682e+02
3.200292e+03,6.046061e+02
3.211863e+03,0.000000e+00
3.223434e+03,0.000000e+00
3.235005e+03,0.000000e+00
3.246576e+03,0.000000e+00
3.258146e+03,0.000000e+00
3.269717e+03,0.000000e+00
3.281288e+03,0.000000e+00
3.292859e+03,0.000000e+00
3.304430e+03,0.000000e+00
3.316000e+03,0.000000e+00
3.327571e+03,0.000000e+00
3.339142e+03,0.000000e+00
3.350713e+03,0.000000e+00
3.362284e+03,0.000000e+00
3.373854e+03,0.000000e+00
3.385425e+03,0.000000e+00
3.396996e+03,0.000000e+00
3.408567e+03,0.000000e+00
3.420138e+03,0.000000e+00
3.431708e+03,0.000000e+00
3.443279e+03,0.000000e+00
3.454850e+03,0.000000e+00
3.466421e+03,0.000000e+00
3.477992e+03,0.000000e+00
3.489563e+03,0.000000e+00
3.500169e+03,0.000000e+00

File: red fibre2.CSV
9.931763e+01,0.000000e+00
1.108884e+02,0.000000e+00
1.224592e+02,0.000000e+00
1.340300e+02,0.000000e+00
1.456008e+02,0.000000e+00
1.571716e+02,0.000000e+00
1.687424e+02,0.000000e+00
1.803132e+02,0.000000e+00
1.918840e+02,0.000000e+00
2.034548e+02,6.261983e+03
2.150256e+02,6.284420e+03
2.265964e+02,6.294147e+03
2.381673e+02,6.308555e+03
2.497381e+02,6.361230e+03
2.613088e+02,6.377722e+03
2.728796e+02,6.419062e+03
2.844504e+02,6.445657e+03
2.960212e+02,6.460753e+03
3.075920e+02,6.454796e+03
3.191628e+02,6.470930e+03
3.307336e+02,6.495087e+03
3.423044e+02,6.510349e+03
3.538752e+02,6.490924e+03
3.654461e+02,6.493558e+03
3.770169e+02,6.530585e+03
3.885877e+02,6.503773e+03
4.001585e+02,6.511235e+03
4.117293e+02,6.492150e+03
4.233001e+02,6.480767e+03
4.348709e+02,6.512565e+03
4.464417e+02,6.504439e+03
4.580125e+02,6.476311e+03
4.695833e+02,6.468198e+03
4.811541e+02,6.455760e+03
4.927249e+02,6.422771e+03
5.042957e+02,6.440637e+03
5.158665e+02,6.446455e+03
5.274373e+02,6.430146e+03
5.390081e+02,6.404442e+03
5.505789e+02,6.406458e+03
5.621497e+02,6.371491e+03
5.737205e+02,6.370161e+03
5.852913e+02,6.361177e+03
5.968621e+02,6.325617e+03
6.084329e+02,6.315163e+03
6.200037e+02,6.299753e+03
6.315745e+02,6.239130e+03
6.431453e+02,6.238371e+03
6.547161e+02,6.227385e+03
6.662869e+02,6.171644e+03
6.778577e+02,6.134816e+03
6.894285e+02,6.113034e+03
7.009993e+02,6.114278e+03
7.125701e+02,6.081568e+03
7.241409e+02,6.056761e+03
7.357117e+02,5.991134e+03
7.472825e+02,5.990096e+03
7.588533e+02,5.955580e+03
7.704241e+02,5.931264e+03
7.819949e+02,5.889782e+03
7.935657e+02,5.892796e+03
8.051365e+02,5.829345e+03
8.167073e+02,5.791219e+03
8.282781e+02,5.777761e+03
8.398489e+02,5.784330e+03
8.514197e+02,5.722369e+03
8.629905e+02,5.703700e+03
8.745613e+02,5.655897e+03
8.861321e+02,5.651395e+03
8.977029e+02,5.574028e+03
9.092737e+02,5.538891e+03
9.208445e+02,5.506860e+03
9.324153e+02,5.495486e+03
9.439861e+02,5.444080e+03
9.555569e+02,5.425208e+03
9.671277e+02,5.392338e+03
9.786985e+02,5.358900e+03
9.902693e+02,5.314023e+03
1.001840e+03,5.277029e+03
1.013411e+03,5.226983e+03
1.024982e+03,5.224003e+03
1.036552e+03,5.200378e+03
1.048123e+03,5.144524e+03
1.059694e+03,5.115790e+03
1.071265e+03,5.114447e+03
1.082836e+03,5.091766e+03
1.094406e+03,5.014341e+03
1.105977e+03,5.014100e+03
1.117548e+03,4.986677e+03
1.129119e+03,4.929500e+03
1.140690e+03,4.901461e+03
1.152261e+03,4.868470e+03
1.163831e+03,4.857580e+03
1.175402e+03,4.778517e+03
1.186973e+03,4.778832e+03
1.198544e+03,4.743675e+03
1.210115e+03,4.735891e+03
1.221685e+03,4.681641e+03
1.233256e+03,4.642268e+03
1.244827e+03,4.637471e+03
1.256398e+03,4.605994e+03
1.267969e+03,4.574193e+03
1.279539e+03,4.541148e+03
1.291110e+03,4.516397e+03
1.302681e+03,4.481758e+03
1.314252e+03,4.457430e+03
1.325823e+03,4.441351e+03
1.337393e+03,4.418749e+03
1.348964e+03,4.378011e+03
1.360535e+03,4.330938e+03
1.372106e+03,4.301983e+03
1.383677e+03,4.294126e+03
1.395247e+03,4.245764e+03
1.406818e+03,4.213278e+03
1.418389e+03,4.183831e+03
1.429960e+03,4.171767e+03
1.441531e+03,4.127012e+03
1.453101e+03,4.102002e+03
1.464672e+03,4.085931e+03
1.476243e+03,4.052477e+03
1.487814e+03,4.013924e+03
1.499385e+03,3.983532e+03
1.510955e+03,3.947037e+03
1.522526e+03,3.930481e+03
1.534097e+03,3.883140e+03
1.545668e+03,3.877550e+03
1.557239e+03,3.846903e+03
1.568809e+03,3.831060e+03
1.580380e+03,3.804333e+03
1.591951e+03,3.773876e+03
1.603522e+03,3.744655e+03
1.615093e+03,3.711339e+03
1.626663e+03,3.675320e+03
1.638234e+03,3.628992e+03
1.649805e+03,3.610427e+03
1.661376e+03,3.574328e+03
1.672947e+03,3.539932e+03
1.684517e+03,3.504626e+03
1.696088e+03,3.494710e+03
1.707659e+03,3.453229e+03
1.719230e+03,3.452739e+03
1.730801e+03,3.413685e+03
1.742371e+03,3.368836e+03
1.753942e+03,3.334220e+03
1.765513e+03,3.319186e+03
1.777084e+03,3.286067e+03
1.788655e+03,3.242873e+03
1.800225e+03,3.257915e+03
1.811796e+03,3.180996e+03
1.823367e+03,3.171348e+03
1.834938e+03,3.156412e+03
1.846509e+03,3.110879e+03
1.858079e+03,3.086171e+03
1.869650e+03,3.079197e+03
1.881221e+03,3.010836e+03
1.892792e+03,3.004163e+03
1.904363e+03,2.966554e+03
1.915933e+03,2.910237e+03
1.927504e+03,2.919025e+03
1.939075e+03,2.895333e+03
1.950646e+03,2.856078e+03
1.962217e+03,2.828909e+03
1.973787e+03,2.782777e+03
1.985358e+03,2.779003e+03
1.996929e+03,2.747878e+03
2.008500e+03,2.718752e+03
2.020071e+03,2.688376e+03
2.031641e+03,2.652472e+03
2.043212e+03,2.621568e+03
2.054783e+03,2.592543e+03
2.066354e+03,2.567497e+03
2.077925e+03,2.525565e+03
2.089496e+03,2.525073e+03
2.101066e+03,2.479198e+03
2.112637e+03,2.459045e+03
2.124208e+03,2.432168e+03
2.135779e+03,2.396870e+03
2.147350e+03,2.351483e+03
2.158920e+03,2.334080e+03
2.170491e+03,2.315211e+03
2.182062e+03,2.304962e+03
2.193633e+03,2.255983e+03
2.205204e+03,2.236039e+03
2.216774e+03,2.225602e+03
2.228345e+03,2.193634e+03
2.239916e+03,2.133125e+03
2.251487e+03,2.145427e+03
2.263058e+03,2.098482e+03
2.274628e+03,2.080741e+03
2.286199e+03,2.038436e+03
2.297770e+03,2.048830e+03
2.309341e+03,2.004030e+03
2.320912e+03,1.983776e+03
2.332482e+03,1.945947e+03
2.344053e+03,1.928433e+03
2.355624e+03,1.907629e+03
2.367195e+03,1.882062e+03
2.378766e+03,1.858777e+03
2.390336e+03,1.828198e+03
2.401907e+03,1.809799e+03
2.413478e+03,1.806800e+03
2.425049e+03,1.768344e+03
2.436620e+03,1.773136e+03
2.448190e+03,1.745784e+03
2.459761e+03,1.732395e+03
2.471332e+03,1.701215e+03
2.482903e+03,1.672614e+03
2.494474e+03,1.672491e+03
2.506044e+03,1.635764e+03
2.517615e+03,1.610384e+03
2.529186e+03,1.606626e+03
2.540757e+03,1.589812e+03
2.552328e+03,1.583478e+03
2.563898e+03,1.575091e+03
2.575469e+03,1.529321e+03
2.587040e+03,1.514209e+03
2.598611e+03,1.499695e+03
2.610182e+03,1.483888e+03
2.621752e+03,1.457483e+03
2.633323e+03,1.446668e+03
2.644894e+03,1.418191e+03
2.656465e+03,1.427241e+03
2.668036e+03,1.429677e+03
2.679606e+03,1.395593e+03
2.691177e+03,1.398674e+03
2.702748e+03,1.362626e+03
2.714319e+03,1.338214e+03
2.725890e+03,1.334260e+03
2.737460e+03,1.320839e+03
2.749031e+03,1.324643e+03
2.760602e+03,1.316491e+03
2.772173e+03,1.288527e+03
2.783744e+03,1.269504e+03
2.795314e+03,1.275424e+03
2.806885e+03,1.258998e+03
2.818456e+03,1.240026e+03
2.830027e+03,1.242046e+03
2.841598e+03,1.231504e+03
2.853168e+03,1.215669e+03
2.864739e+03,1.222366e+03
2.876310e+03,1.238580e+03
2.887881e+03,1.229927e+03
2.899452e+03,1.190716e+03
2.911022e+03,1.188993e+03
2.922593e+03,1.181773e+03
2.934164e+03,1.149072e+03
2.945735e+03,1.157696e+03
2.957306e+03,1.170905e+03
2.968876e+03,1.138615e+03
2.980447e+03,1.138419e+03
2.992018e+03,1.110925e+03
3.003589e+03,1.080330e+03
3.015160e+03,1.106082e+03
3.026730e+03,1.069737e+03
3.038301e+03,1.090982e+03
3.049872e+03,1.064889e+03
3.061443e+03,1.062557e+03
3.073014e+03,1.075620e+03
3.084584e+03,1.030309e+03
3.096155e+03,1.057049e+03
3.107726e+03,1.050262e+03
3.119297e+03,1.064325e+03
3.130868e+03,1.066877e+03
3.142438e+03,1.085304e+03
3.154009e+03,1.024924e+03
3.165580e+03,1.089318e+03
3.177151e+03,1.056509e+03
3.188722e+03,1.062867e+03
3.200292e+03,1.067887e+03
3.211863e+03,0.000000e+00
3.223434e+03,0.000000e+00
3.235005e+03,0.000000e+00
3.246576e+03,0.000000e+00
3.258146e+03,0.000000e+00
3.269717e+03,0.000000e+00
3.281288e+03,0.000000e+00
3.292859e+03,0.000000e+00
3.304430e+03,0.000000e+00
3.316000e+03,0.000000e+00
3.327571e+03,0.000000e+00
3.339142e+03,0.000000e+00
3.350713e+03,0.000000e+00
3.362284e+03,0.000000e+00
3.373854e+03,0.000000e+00
3.385425e+03,0.000000e+00
3.396996e+03,0.000000e+00
3.408567e+03,0.000000e+00
3.420138e+03,0.000000e+00
3.431708e+03,0.000000e+00
3.443279e+03,0.000000e+00
3.454850e+03,0.000000e+00
3.466421e+03,0.000000e+00
3.477992e+03,0.000000e+00
3.489563e+03,0.000000e+00
3.500169e+03,0.000000e+00