Folder: Taff_Bargoed_microplastics_data/RAMAN_data/19072023_r3

Note: README.md
# Taff_Bargoed_microplastics_data

File: black fibre1.CSV
9.931763e+01,0.000000e+00
1.108884e+02,0.000000e+00
1.224592e+02,0.000000e+00
1.340300e+02,0.000000e+00
1.456008e+02,0.000000e+00
1.571716e+02,0.000000e+00
1.687424e+02,0.000000e+00
1.803132e+02,0.000000e+00
1.918840e+02,0.000000e+00
2.034548e+02,3.730942e+03
2.150256e+02,3.746237e+03
2.265964e+02,3.782606e+03
2.381673e+02,3.831118e+03
2.497381e+02,3.911402e+03
2.613088e+02,3.929692e+03
2.728796e+02,3.975968e+03
2.844504e+02,3.996182e+03
2.960212e+02,3.995775e+03
3.075920e+02,4.010700e+03
3.191628e+02,4.043521e+03
3.307336e+02,4.059752e+03
3.423044e+02,4.082953e+03
3.538752e+02,4.100444e+03
3.654461e+02,4.141118e+03
3.770169e+02,4.184730e+03
3.885877e+02,4.153075e+03
4.001585e+02,4.173646e+03
4.117293e+02,4.198031e+03
4.233001e+02,4.217342e+03
4.348709e+02,4.220651e+03
4.464417e+02,4.272165e+03
4.580125e+02,4.244412e+03
4.695833e+02,4.269731e+03
4.811541e+02,4.272241e+03
4.927249e+02,4.267630e+03
5.042957e+02,4.280831e+03
5.158665e+02,4.319553e+03
5.274373e+02,4.303451e+03
5.390081e+02,4.385204e+03
5.505789e+02,4.388167e+03
5.621497e+02,4.391915e+03
5.737205e+02,4.312746e+03
5.852913e+02,4.308566e+03
5.968621e+02,4.361566e+03
6.084329e+02,4.384114e+03
6.200037e+02,4.331911e+03
6.315745e+02,4.314615e+03
6.431453e+02,4.306951e+03
6.547161e+02,4.327276e+03
6.662869e+02,4.311092e+03
6.778577e+02,4.269266e+03
6.894285e+02,4.273312e+03
7.009993e+02,4.265122e+03
7.125701e+02,4.252698e+03
7.241409e+02,4.248235e+03
7.357117e+02,4.226863e+03
7.472825e+02,4.238886e+03
7.588533e+02,4.221268e+03
7.704241e+02,4.208907e+03
7.819949e+02,4.210585e+03
7.935657e+02,4.193181e+03
8.051365e+02,4.171981e+03
8.167073e+02,4.167946e+03
8.282781e+02,4.145181e+03
8.398489e+02,4.130276e+03
8.514197e+02,4.106088e+03
8.629905e+02,4.075954e+03
8.745613e+02,4.076767e+03
8.861321e+02,4.053695e+03
8.977029e+02,4.051229e+03
9.092737e+02,4.014868e+03
9.208445e+02,3.992314e+03
9.324153e+02,3.985635e+03
9.439861e+02,3.949467e+03
9.555569e+02,3.932898e+03
9.671277e+02,3.897859e+03
9.786985e+02,3.894396e+03
9.902693e+02,3.875593e+03
1.001840e+03,3.854390e+03
1.013411e+03,3.847383e+03
1.024982e+03,3.819739e+03
1.036552e+03,3.792368e+03
1.048123e+03,3.777692e+03
1.059694e+03,3.752783e+03
1.071265e+03,3.775690e+03
1.082836e+03,3.762979e+03
1.094406e+03,3.735983e+03
1.105977e+03,3.707370e+03
1.117548e+03,3.700767e+03
1.129119e+03,3.664483e+03
1.140690e+03,3.636292e+03
1.152261e+03,3.603806e+03
1.163831e+03,3.588288e+03
1.175402e+03,3.566772e+03
1.186973e+03,3.531447e+03
1.198544e+03,3.547703e+03
1.210115e+03,3.533916e+03
1.221685e+03,3.521152e+03
1.233256e+03,3.481829e+03
1.244827e+03,3.480759e+03
1.256398e+03,3.464770e+03
1.267969e+03,3.409499e+03
1.279539e+03,3.396425e+03
1.291110e+03,3.400464e+03
1.302681e+03,3.389718e+03
1.314252e+03,3.366877e+03
1.325823e+03,3.380715e+03
1.337393e+03,3.384517e+03
1.348964e+03,3.358640e+03
1.360535e+03,3.346542e+03
1.372106e+03,3.349433e+03
1.383677e+03,3.320547e+03
1.395247e+03,3.288097e+03
1.406818e+03,3.283562e+03
1.418389e+03,3.251647e+03
1.429960e+03,3.217159e+03
1.441531e+03,3.217395e+03
1.453101e+03,3.198414e+03
1.464672e+03,3.179181e+03
1.476243e+03,3.166753e+03
1.487814e+03,3.122663e+03
1.499385e+03,3.128054e+03
1.510955e+03,3.088469e+03
1.522526e+03,3.078018e+03
1.534097e+03,3.053388e+03
1.545668e+03,3.044118e+03
1.557239e+03,3.070316e+03
1.568809e+03,3.140685e+03
1.580380e+03,3.092724e+03
1.591951e+03,2.996298e+03
1.603522e+03,2.951710e+03
1.615093e+03,2.932877e+03
1.626663e+03,2.938524e+03
1.638234e+03,2.901003e+03
1.649805e+03,2.893309e+03
1.661376e+03,2.849036e+03
1.672947e+03,2.858269e+03
1.684517e+03,2.817920e+03
1.696088e+03,2.812092e+03
1.707659e+03,2.784006e+03
1.719230e+03,2.774452e+03
1.730801e+03,2.749626e+03
1.742371e+03,2.733866e+03
1.753942e+03,2.725219e+03
1.765513e+03,2.709111e+03
1.777084e+03,2.709203e+03
1.788655e+03,2.696577e+03
1.800225e+03,2.664701e+03
1.811796e+03,2.639136e+03
1.823367e+03,2.625641e+03
1.834938e+03,2.628409e+03
1.846509e+03,2.591266e+03
1.858079e+03,2.574350e+03
1.869650e+03,2.557841e+03
1.881221e+03,2.560437e+03
1.892792e+03,2.536615e+03
1.904363e+03,2.512939e+03
1.915933e+03,2.479185e+03
1.927504e+03,2.462664e+03
1.939075e+03,2.451179e+03
1.950646e+03,2.428323e+03
1.962217e+03,2.413686e+03
1.973787e+03,2.403008e+03
1.985358e+03,2.406225e+03
1.996929e+03,2.362411e+03
2.008500e+03,2.350538e+03
2.020071e+03,2.313312e+03
2.031641e+03,2.303998e+03
2.043212e+03,2.278298e+03
2.054783e+03,2.279832e+03
2.066354e+03,2.252786e+03
2.077925e+03,2.234695e+03
2.089496e+03,2.224438e+03
2.101066e+03,2.192225e+03
2.112637e+03,2.172114e+03
2.124208e+03,2.160075e+03
2.135779e+03,2.147425e+03
2.147350e+03,2.102842e+03
2.158920e+03,2.096594e+03
2.170491e+03,2.092780e+03
2.182062e+03,2.081236e+03
2.193633e+03,2.047281e+03
2.205204e+03,2.046267e+03
2.216774e+03,2.022527e+03
2.228345e+03,2.000997e+03
2.239916e+03,1.959215e+03
2.251487e+03,1.978020e+03
2.263058e+03,1.958306e+03
2.274628e+03,1.915054e+03
2.286199e+03,1.906929e+03
2.297770e+03,1.891953e+03
2.309341e+03,1.881525e+03
2.320912e+03,1.861672e+03
2.332482e+03,1.839206e+03
2.344053e+03,1.844227e+03
2.355624e+03,1.804864e+03
2.367195e+03,1.801987e+03
2.378766e+03,1.781807e+03
2.390336e+03,1.757829e+03
2.401907e+03,1.732880e+03
2.413478e+03,1.729775e+03
2.425049e+03,1.712118e+03
2.436620e+03,1.703294e+03
2.448190e+03,1.684292e+03
2.459761e+03,1.659697e+03
2.471332e+03,1.646797e+03
2.482903e+03,1.654461e+03
2.494474e+03,1.628133e+03
2.506044e+03,1.620010e+03
2.517615e+03,1.610154e+03
2.529186e+03,1.602010e+03
2.540757e+03,1.578533e+03
2.552328e+03,1.577588e+03
2.563898e+03,1.548733e+03
2.575469e+03,1.545064e+03
2.587040e+03,1.520204e+03
2.598611e+03,1.521583e+03
2.610182e+03,1.494641e+03
2.621752e+03,1.514125e+03
2.633323e+03,1.458382e+03
2.644894e+03,1.479820e+03
2.656465e+03,1.469970e+03
2.668036e+03,1.478249e+03
2.679606e+03,1.435462e+03
2.691177e+03,1.412926e+03
2.702748e+03,1.416995e+03
2.714319e+03,1.410865e+03
2.725890e+03,1.410606e+03
2.737460e+03,1.384449e+03
2.749031e+03,1.374688e+03
2.760602e+03,1.361783e+03
2.772173e+03,1.361313e+03
2.783744e+03,1.342474e+03
2.795314e+03,1.317188e+03
2.806885e+03,1.324635e+03
2.818456e+03,1.319800e+03
2.830027e+03,1.297971e+03
2.841598e+03,1.272350e+03
2.853168e+03,1.293711e+03
2.864739e+03,1.304191e+03
2.876310e+03,1.262642e+03
2.887881e+03,1.294687e+03
2.899452e+03,1.266236e+03
2.911022e+03,1.267157e+03
2.922593e+03,1.263975e+03
2.934164e+03,1.248604e+03
2.945735e+03,1.242676e+03
2.957306e+03,1.279023e+03
2.968876e+03,1.218810e+03
2.980447e+03,1.193478e+03
2.992018e+03,1.178774e+03
3.003589e+03,1.156443e+03
3.015160e+03,1.192670e+03
3.026730e+03,1.171713e+03
3.038301e+03,1.159303e+03
3.049872e+03,1.144582e+03
3.061443e+03,1.131794e+03
3.073014e+03,1.144354e+03
3.084584e+03,1.138427e+03
3.096155e+03,1.096357e+03
3.107726e+03,1.124146e+03
3.119297e+03,1.124194e+03
3.130868e+03,1.136282e+03
3.142438e+03,1.113929e+03
3.154009e+03,1.126563e+03
3.165580e+03,1.109705e+03
3.177151e+03,1.115921e+03
3.188722e+03,1.082976e+03
3.200292e+03,1.117075e+03
3.211863e+03,0.000000e+00
3.223434e+03,0.000000e+00
3.235005e+03,0.000000e+00
3.246576e+03,0.000000e+00
3.258146e+03,0.000000e+00
3.269717e+03,0.000000e+00
3.281288e+03,0.000000e+00
3.292859e+03,0.000000e+00
3.304430e+03,0.000000e+00
3.316000e+03,0.000000e+00
3.327571e+03,0.000000e+00
3.339142e+03,0.000000e+00
3.350713e+03,0.000000e+00
3.362284e+03,0.000000e+00
3.373854e+03,0.000000e+00
3.385425e+03,0.000000e+00
3.396996e+03,0.000000e+00
3.408567e+03,0.000000e+00
3.420138e+03,0.000000e+00
3.431708e+03,0.000000e+00
3.443279e+03,0.000000e+00
3.454850e+03,0.000000e+00
3.466421e+03,0.000000e+00
3.477992e+03,0.000000e+00
3.489563e+03,0.000000e+00
3.500169e+03,0.000000e+00

File: black fibre2.CSV
9.931763e+01,0.000000e+00
1.108884e+02,0.000000e+00
1.224592e+02,0.000000e+00
1.340300e+02,0.000000e+00
1.456008e+02,0.000000e+00
1.571716e+02,0.000000e+00
1.687424e+02,0.000000e+00
1.803132e+02,0.000000e+00
1.918840e+02,0.000000e+00
2.034548e+02,3.493247e+03
2.150256e+02,3.487481e+03
2.265964e+02,3.483477e+03
2.381673e+02,3.513820e+03
2.497381e+02,3.511306e+03
2.613088e+02,3.494558e+03
2.728796e+02,3.490435e+03
2.844504e+02,3.510570e+03
2.960212e+02,3.537357e+03
3.075920e+02,3.560016e+03
3.191628e+02,3.559661e+03
3.307336e+02,3.551943e+03
3.423044e+02,3.547031e+03
3.538752e+02,3.525112e+03
3.654461e+02,3.528198e+03
3.770169e+02,3.544117e+03
3.885877e+02,3.486153e+03
4.001585e+02,3.472210e+03
4.117293e+02,3.455824e+03
4.233001e+02,3.464476e+03
4.348709e+02,3.487525e+03
4.464417e+02,3.487048e+03
4.580125e+02,3.470632e+03
4.695833e+02,3.458910e+03
4.811541e+02,3.446835e+03
4.927249e+02,3.444001e+03
5.042957e+02,3.423246e+03
5.158665e+02,3.419848e+03
5.274373e+02,3.358200e+03
5.390081e+02,3.322972e+03
5.505789e+02,3.318156e+03
5.621497e+02,3.311134e+03
5.737205e+02,3.315691e+03
5.852913e+02,3.321523e+03
5.968621e+02,3.299292e+03
6.084329e+02,3.294508e+03
6.200037e+02,3.262621e+03
6.315745e+02,3.268017e+03
6.431453e+02,3.226761e+03
6.547161e+02,3.201967e+03
6.662869e+02,3.156258e+03
6.778577e+02,3.125635e+03
6.894285e+02,3.125149e+03
7.009993e+02,3.118988e+03
7.125701e+02,3.124726e+03
7.241409e+02,3.115566e+03
7.357117e+02,3.095491e+03
7.472825e+02,3.081048e+03
7.588533e+02,3.056977e+03
7.704241e+02,3.036210e+03
7.819949e+02,3.009042e+03
7.935657e+02,2.991017e+03
8.051365e+02,2.947915e+03
8.167073e+02,2.936234e+03
8.282781e+02,2.892782e+03
8.398489e+02,2.888667e+03
8.514197e+02,2.886031e+03
8.629905e+02,2.880876e+03
8.745613e+02,2.849438e+03
8.861321e+02,2.838650e+03
8.977029e+02,2.813679e+03
9.092737e+02,2.791857e+03
9.208445e+02,2.755707e+03
9.324153e+02,2.755997e+03
9.439861e+02,2.728511e+03
9.555569e+02,2.708615e+03
9.671277e+02,2.705344e+03
9.786985e+02,2.676396e+03
9.902693e+02,2.646272e+03
1.001840e+03,2.611621e+03
1.013411e+03,2.618786e+03
1.024982e+03,2.596347e+03
1.036552e+03,2.601299e+03
1.048123e+03,2.565476e+03
1.059694e+03,2.574612e+03
1.071265e+03,2.582423e+03
1.082836e+03,2.555894e+03
1.094406e+03,2.546988e+03
1.105977e+03,2.523659e+03
1.117548e+03,2.526647e+03
1.129119e+03,2.476042e+03
1.140690e+03,2.495339e+03
1.152261e+03,2.503345e+03
1.163831e+03,2.495064e+03
1.175402e+03,2.442851e+03
1.186973e+03,2.416534e+03
1.198544e+03,2.418706e+03
1.210115e+03,2.399574e+03
1.221685e+03,2.385776e+03
1.233256e+03,2.353491e+03
1.244827e+03,2.356325e+03
1.256398e+03,2.325343e+03
1.267969e+03,2.313835e+03
1.279539e+03,2.314307e+03
1.291110e+03,2.312433e+03
1.302681e+03,2.315677e+03
1.314252e+03,2.337988e+03
1.325823e+03,2.329563e+03
1.337393e+03,2.298219e+03
1.348964e+03,2.282299e+03
1.360535e+03,2.275252e+03
1.372106e+03,2.250030e+03
1.383677e+03,2.230725e+03
1.395247e+03,2.183164e+03
1.406818e+03,2.162114e+03
1.418389e+03,2.153955e+03
1.429960e+03,2.146077e+03
1.441531e+03,2.136714e+03
1.453101e+03,2.125740e+03
1.464672e+03,2.101702e+03
1.476243e+03,2.082692e+03
1.487814e+03,2.093451e+03
1.499385e+03,2.092617e+03
1.510955e+03,2.085447e+03
1.522526e+03,2.059947e+03
1.534097e+03,2.027043e+03
1.545668e+03,2.010714e+03
1.557239e+03,1.998740e+03
1.568809e+03,2.005324e+03
1.580380e+03,2.029834e+03
1.591951e+03,1.994077e+03
1.603522e+03,1.973746e+03
1.615093e+03,1.997403e+03
1.626663e+03,1.948693e+03
1.638234e+03,1.937991e+03
1.649805e+03,1.900505e+03
1.661376e+03,1.873733e+03
1.672947e+03,1.859734e+03
1.684517e+03,1.832336e+03
1.696088e+03,1.821972e+03
1.707659e+03,1.824811e+03
1.719230e+03,1.834703e+03
1.730801e+03,1.820503e+03
1.742371e+03,1.785224e+03
1.753942e+03,1.769131e+03
1.765513e+03,1.762278e+03
1.777084e+03,1.734706e+03
1.788655e+03,1.696644e+03
1.800225e+03,1.695999e+03
1.811796e+03,1.702526e+03
1.823367e+03,1.670516e+03
1.834938e+03,1.657857e+03
1.846509e+03,1.637518e+03
1.858079e+03,1.618659e+03
1.869650e+03,1.608434e+03
1.881221e+03,1.614847e+03
1.892792e+03,1.580013e+03
1.904363e+03,1.568710e+03
1.915933e+03,1.560362e+03
1.927504e+03,1.529170e+03
1.939075e+03,1.515047e+03
1.950646e+03,1.495064e+03
1.962217e+03,1.483968e+03
1.973787e+03,1.481436e+03
1.985358e+03,1.459678e+03
1.996929e+03,1.467607e+03
2.008500e+03,1.435519e+03
2.020071e+03,1.416708e+03
2.031641e+03,1.419589e+03
2.043212e+03,1.385654e+03
2.054783e+03,1.350731e+03
2.066354e+03,1.367963e+03
2.077925e+03,1.328805e+03
2.089496e+03,1.316124e+03
2.101066e+03,1.300189e+03
2.112637e+03,1.309477e+03
2.124208e+03,1.287590e+03
2.135779e+03,1.263888e+03
2.147350e+03,1.248794e+03
2.158920e+03,1.241317e+03
2.170491e+03,1.227240e+03
2.182062e+03,1.214433e+03
2.193633e+03,1.184074e+03
2.205204e+03,1.182351e+03
2.216774e+03,1.161432e+03
2.228345e+03,1.135451e+03
2.239916e+03,1.120369e+03
2.251487e+03,1.145154e+03
2.263058e+03,1.105470e+03
2.274628e+03,1.116529e+03
2.286199e+03,1.091783e+03
2.297770e+03,1.079151e+03
2.309341e+03,1.061377e+03
2.320912e+03,1.045697e+03
2.332482e+03,1.016737e+03
2.344053e+03,1.015874e+03
2.355624e+03,1.012476e+03
2.367195e+03,9.790129e+02
2.378766e+03,9.902297e+02
2.390336e+03,9.579915e+02
2.401907e+03,9.764787e+02
2.413478e+03,9.621237e+02
2.425049e+03,9.559952e+02
2.436620e+03,9.485616e+02
2.448190e+03,9.282944e+02
2.459761e+03,9.052916e+02
2.471332e+03,9.059611e+02
2.482903e+03,8.856155e+02
2.494474e+03,8.863873e+02
2.506044e+03,8.639375e+02
2.517615e+03,8.531116e+02
2.529186e+03,8.448082e+02
2.540757e+03,8.525372e+02
2.552328e+03,8.492816e+02
2.563898e+03,8.658868e+02
2.575469e+03,8.486129e+02
2.587040e+03,8.310524e+02
2.598611e+03,8.024678e+02
2.610182e+03,8.038839e+02
2.621752e+03,7.990387e+02
2.633323e+03,7.885862e+02
2.644894e+03,7.810929e+02
2.656465e+03,7.733182e+02
2.668036e+03,7.718887e+02
2.679606e+03,7.689879e+02
2.691177e+03,7.587714e+02
2.702748e+03,7.473167e+02
2.714319e+03,7.465588e+02
2.725890e+03,7.459481e+02
2.737460e+03,7.300954e+02
2.749031e+03,7.283766e+02
2.760602e+03,7.116234e+02
2.772173e+03,7.145533e+02
2.783744e+03,6.909731e+02
2.795314e+03,7.139525e+02
2.806885e+03,7.029192e+02
2.818456e+03,6.858153e+02
2.830027e+03,6.980017e+02
2.841598e+03,6.708640e+02
2.853168e+03,6.735172e+02
2.864739e+03,6.744282e+02
2.876310e+03,6.831231e+02
2.887881e+03,6.966025e+02
2.899452e+03,6.797581e+02
2.911022e+03,6.645105e+02
2.922593e+03,6.690975e+02
2.934164e+03,6.620257e+02
2.945735e+03,6.366805e+02
2.957306e+03,6.728150e+02
2.968876e+03,6.341101e+02
2.980447e+03,6.265170e+02
2.992018e+03,6.213643e+02
3.003589e+03,6.049889e+02
3.015160e+03,6.018802e+02
3.026730e+03,6.053875e+02
3.038301e+03,6.182040e+02
3.049872e+03,6.083755e+02
3.061443e+03,6.174637e+02
3.073014e+03,6.037148e+02
3.084584e+03,5.957314e+02
3.096155e+03,6.034119e+02
3.107726e+03,6.116894e+02
3.119297e+03,6.048149e+02
3.130868e+03,5.903873e+02
3.142438e+03,6.210717e+02
3.154009e+03,6.079479e+02
3.165580e+03,6.153138e+02
3.177151e+03,6.192181e+02
3.188722e+03,5.707468e+02
3.200292e+03,6.357150e+02
3.211863e+03,0.000000e+00
3.223434e+03,0.000000e+00
3.235005e+03,0.000000e+00
3.246576e+03,0.000000e+00
3.258146e+03,0.000000e+00
3.269717e+03,0.000000e+00
3.281288e+03,0.000000e+00
3.292859e+03,0.000000e+00
3.304430e+03,0.000000e+00
3.316000e+03,0.000000e+00
3.327571e+03,0.000000e+00
3.339142e+03,0.000000e+00
3.350713e+03,0.000000e+00
3.362284e+03,0.000000e+00
3.373854e+03,0.000000e+00
3.385425e+03,0.000000e+00
3.396996e+03,0.000000e+00
3.408567e+03,0.000000e+00
3.420138e+03,0.000000e+00
3.431708e+03,0.000000e+00
3.443279e+03,0.000000e+00
3.454850e+03,0.000000e+00
3.466421e+03,0.000000e+00
3.477992e+03,0.000000e+00
3.489563e+03,0.000000e+00
3.500169e+03,0.000000e+00

File: black fibre3.CSV
9.931763e+01,0.000000e+00
1.108884e+02,0.000000e+00
1.224592e+02,0.000000e+00
1.340300e+02,0.000000e+00
1.456008e+02,0.000000e+00
1.571716e+02,0.000000e+00
1.687424e+02,0.000000e+00
1.803132e+02,0.000000e+00
1.918840e+02,0.000000e+00
2.034548e+02,1.566784e+03
2.150256e+02,1.579552e+03
2.265964e+02,1.572121e+03
2.381673e+02,1.589472e+03
2.497381e+02,1.584741e+03
2.613088e+02,1.580172e+03
2.728796e+02,1.596624e+03
2.844504e+02,1.583434e+03
2.960212e+02,1.599387e+03
3.075920e+02,1.594548e+03
3.191628e+02,1.608074e+03
3.307336e+02,1.602781e+03
3.423044e+02,1.617025e+03
3.538752e+02,1.611172e+03
3.654461e+02,1.601197e+03
3.770169e+02,1.617154e+03
3.885877e+02,1.606543e+03
4.001585e+02,1.601141e+03
4.117293e+02,1.601848e+03
4.233001e+02,1.612068e+03
4.348709e+02,1.610515e+03
4.464417e+02,1.599363e+03
4.580125e+02,1.593509e+03
4.695833e+02,1.599182e+03
4.811541e+02,1.587968e+03
4.927249e+02,1.586415e+03
5.042957e+02,1.574929e+03
5.158665e+02,1.579796e+03
5.274373e+02,1.571507e+03
5.390081e+02,1.563840e+03
5.505789e+02,1.570988e+03
5.621497e+02,1.549195e+03
5.737205e+02,1.546858e+03
5.852913e+02,1.538375e+03
5.968621e+02,1.539987e+03
6.084329e+02,1.547470e+03
6.200037e+02,1.530206e+03
6.315745e+02,1.522479e+03
6.431453e+02,1.517078e+03
6.547161e+02,1.505803e+03
6.662869e+02,1.497446e+03
6.778577e+02,1.482414e+03
6.894285e+02,1.479338e+03
7.009993e+02,1.481033e+03
7.125701e+02,1.472164e+03
7.241409e+02,1.457502e+03
7.357117e+02,1.444450e+03
7.472825e+02,1.460466e+03
7.588533e+02,1.438734e+03
7.704241e+02,1.433506e+03
7.819949e+02,1.423310e+03
7.935657e+02,1.411925e+03
8.051365e+02,1.407113e+03
8.167073e+02,1.410509e+03
8.282781e+02,1.398997e+03
8.398489e+02,1.389053e+03
8.514197e+02,1.372314e+03
8.629905e+02,1.387720e+03
8.745613e+02,1.383723e+03
8.861321e+02,1.364450e+03
8.977029e+02,1.354183e+03
9.092737e+02,1.346531e+03
9.208445e+02,1.338743e+03
9.324153e+02,1.325432e+03
9.439861e+02,1.328661e+03
9.555569e+02,1.313317e+03
9.671277e+02,1.304428e+03
9.786985e+02,1.300479e+03
9.902693e+02,1.303298e+03
1.001840e+03,1.287216e+03
1.013411e+03,1.289500e+03
1.024982e+03,1.273314e+03
1.036552e+03,1.273676e+03
1.048123e+03,1.269834e+03
1.059694e+03,1.253705e+03
1.071265e+03,1.248831e+03
1.082836e+03,1.254113e+03
1.094406e+03,1.257542e+03
1.105977e+03,1.242454e+03
1.117548e+03,1.243722e+03
1.129119e+03,1.225745e+03
1.140690e+03,1.215174e+03
1.152261e+03,1.212766e+03
1.163831e+03,1.202645e+03
1.175402e+03,1.190332e+03
1.186973e+03,1.185282e+03
1.198544e+03,1.181648e+03
1.210115e+03,1.175797e+03
1.221685e+03,1.170141e+03
1.233256e+03,1.166393e+03
1.244827e+03,1.152713e+03
1.256398e+03,1.160721e+03
1.267969e+03,1.150790e+03
1.279539e+03,1.150391e+03
1.291110e+03,1.156314e+03
1.302681e+03,1.140233e+03
1.314252e+03,1.139172e+03
1.325823e+03,1.138935e+03
1.337393e+03,1.140293e+03
1.348964e+03,1.128099e+03
1.360535e+03,1.130341e+03
1.372106e+03,1.128931e+03
1.383677e+03,1.112889e+03
1.395247e+03,1.102988e+03
1.406818e+03,1.098478e+03
1.418389e+03,1.085349e+03
1.429960e+03,1.082699e+03
1.441531e+03,1.074939e+03
1.453101e+03,1.070647e+03
1.464672e+03,1.068605e+03
1.476243e+03,1.066840e+03
1.487814e+03,1.059882e+03
1.499385e+03,1.040934e+03
1.510955e+03,1.040863e+03
1.522526e+03,1.045583e+03
1.534097e+03,1.038565e+03
1.545668e+03,1.023284e+03
1.557239e+03,1.031719e+03
1.568809e+03,1.029076e+03
1.580380e+03,1.012884e+03
1.591951e+03,1.006084e+03
1.603522e+03,1.006695e+03
1.615093e+03,9.834457e+02
1.626663e+03,9.828176e+02
1.638234e+03,9.738680e+02
1.649805e+03,9.765852e+02
1.661376e+03,9.441549e+02
1.672947e+03,9.540728e+02
1.684517e+03,9.485251e+02
1.696088e+03,9.465321e+02
1.707659e+03,9.332716e+02
1.719230e+03,9.298641e+02
1.730801e+03,9.247665e+02
1.742371e+03,9.151424e+02
1.753942e+03,9.079271e+02
1.765513e+03,8.947405e+02
1.777084e+03,8.921937e+02
1.788655e+03,8.774395e+02
1.800225e+03,8.760775e+02
1.811796e+03,8.634648e+02
1.823367e+03,8.594846e+02
1.834938e+03,8.557825e+02
1.846509e+03,8.592990e+02
1.858079e+03,8.507693e+02
1.869650e+03,8.308369e+02
1.881221e+03,8.239376e+02
1.892792e+03,8.203936e+02
1.904363e+03,8.174352e+02
1.915933e+03,8.052566e+02
1.927504e+03,8.080326e+02
1.939075e+03,7.898027e+02
1.950646e+03,7.927833e+02
1.962217e+03,7.860953e+02
1.973787e+03,7.799670e+02
1.985358e+03,7.847160e+02
1.996929e+03,7.661667e+02
2.008500e+03,7.620663e+02
2.020071e+03,7.593229e+02
2.031641e+03,7.460844e+02
2.043212e+03,7.307070e+02
2.054783e+03,7.221078e+02
2.066354e+03,7.307019e+02
2.077925e+03,7.117050e+02
2.089496e+03,7.166080e+02
2.101066e+03,7.059669e+02
2.112637e+03,6.932373e+02
2.124208e+03,6.936995e+02
2.135779e+03,6.895410e+02
2.147350e+03,6.862662e+02
2.158920e+03,6.728676e+02
2.170491e+03,6.634658e+02
2.182062e+03,6.623035e+02
2.193633e+03,6.539133e+02
2.205204e+03,6.577617e+02
2.216774e+03,6.399008e+02
2.228345e+03,6.383031e+02
2.239916e+03,6.306449e+02
2.251487e+03,6.157650e+02
2.263058e+03,6.238977e+02
2.274628e+03,5.993710e+02
2.286199e+03,6.034379e+02
2.297770e+03,6.002800e+02
2.309341e+03,5.959841e+02
2.320912e+03,5.992070e+02
2.332482e+03,5.801161e+02
2.344053e+03,5.770480e+02
2.355624e+03,5.716058e+02
2.367195e+03,5.674016e+02
2.378766e+03,5.533154e+02
2.390336e+03,5.573388e+02
2.401907e+03,5.500013e+02
2.413478e+03,5.403594e+02
2.425049e+03,5.345256e+02
2.436620e+03,5.376263e+02
2.448190e+03,5.188405e+02
2.459761e+03,5.137110e+02
2.471332e+03,5.111559e+02
2.482903e+03,5.214558e+02
2.494474e+03,5.079890e+02
2.506044e+03,5.144814e+02
2.517615e+03,5.044235e+02
2.529186e+03,4.899926e+02
2.540757e+03,4.984411e+02
2.552328e+03,5.019092e+02
2.563898e+03,4.832790e+02
2.575469e+03,4.822763e+02
2.587040e+03,4.867433e+02
2.598611e+03,4.706803e+02
2.610182e+03,4.671062e+02
2.621752e+03,4.761388e+02
2.633323e+03,4.711288e+02
2.644894e+03,4.593791e+02
2.656465e+03,4.676260e+02
2.668036e+03,4.492335e+02
2.679606e+03,4.523286e+02
2.691177e+03,4.487094e+02
2.702748e+03,4.383315e+02
2.714319e+03,4.464948e+02
2.725890e+03,4.459844e+02
2.737460e+03,4.302315e+02
2.749031e+03,4.475617e+02
2.760602e+03,4.258070e+02
2.772173e+03,4.170975e+02
2.783744e+03,4.371026e+02
2.795314e+03,4.265893e+02
2.806885e+03,4.291671e+02
2.818456e+03,4.281688e+02
2.830027e+03,4.141933e+02
2.841598e+03,4.195805e+02
2.853168e+03,4.161480e+02
2.864739e+03,4.050453e+02
2.876310e+03,4.338970e+02
2.887881e+03,4.208434e+02
2.899452e+03,4.192884e+02
2.911022e+03,4.088323e+02
2.922593e+03,4.084579e+02
2.934164e+03,4.104939e+02
2.945735e+03,3.962591e+02
2.957306e+03,4.418122e+02
2.968876e+03,3.922798e+02
2.980447e+03,3.952745e+02
2.992018e+03,3.902779e+02
3.003589e+03,3.698193e+02
3.015160e+03,3.915072e+02
3.026730e+03,3.821319e+02
3.038301e+03,3.830794e+02
3.049872e+03,3.541543e+02
3.061443e+03,3.849851e+02
3.073014e+03,3.884238e+02
3.084584e+03,3.713018e+02
3.096155e+03,3.626664e+02
3.107726e+03,3.825075e+02
3.119297e+03,3.736540e+02
3.130868e+03,4.061775e+02
3.142438e+03,3.842997e+02
3.154009e+03,3.718838e+02
3.165580e+03,3.798433e+02
3.177151e+03,3.603171e+02
3.188722e+03,3.624601e+02
3.200292e+03,3.937755e+02
3.211863e+03,0.000000e+00
3.223434e+03,0.000000e+00
3.235005e+03,0.000000e+00
3.246576e+03,0.000000e+00
3.258146e+03,0.000000e+00
3.269717e+03,0.000000e+00
3.281288e+03,0.000000e+00
3.292859e+03,0.000000e+00
3.304430e+03,0.000000e+00
3.316000e+03,0.000000e+00
3.327571e+03,0.000000e+00
3.339142e+03,0.000000e+00
3.350713e+03,0.000000e+00
3.362284e+03,0.000000e+00
3.373854e+03,0.000000e+00
3.385425e+03,0.000000e+00
3.396996e+03,0.000000e+00
3.408567e+03,0.000000e+00
3.420138e+03,0.000000e+00
3.431708e+03,0.000000e+00
3.443279e+03,0.000000e+00
3.454850e+03,0.000000e+00
3.466421e+03,0.000000e+00
3.477992e+03,0.000000e+00
3.489563e+03,0.000000e+00
3.500169e+03,0.000000e+00