Folder: Taff_Bargoed_microplastics_data/RAMAN_data/20012023_r1 (part 9)

File: blue frag4.CSV
1.995979e+02,9.718895e+03
2.102045e+02,9.732416e+03
2.208110e+02,9.789388e+03
2.314176e+02,9.956071e+03
2.420242e+02,9.889980e+03
2.526307e+02,1.022851e+04
2.632373e+02,1.012883e+04
2.738439e+02,1.009444e+04
2.844504e+02,1.023125e+04
2.950570e+02,1.020823e+04
3.056636e+02,1.024487e+04
3.162701e+02,1.033424e+04
3.268767e+02,1.040216e+04
3.374833e+02,1.044674e+04
3.480898e+02,1.053951e+04
3.586964e+02,1.060018e+04
3.693030e+02,1.058240e+04
3.799095e+02,1.068662e+04
3.905161e+02,1.073674e+04
4.011227e+02,1.075586e+04
4.117292e+02,1.082025e+04
4.223358e+02,1.085347e+04
4.329424e+02,1.085268e+04
4.435490e+02,1.087174e+04
4.541555e+02,1.090670e+04
4.647621e+02,1.091310e+04
4.753687e+02,1.123946e+04
4.859752e+02,1.121959e+04
4.965818e+02,1.106069e+04
5.071884e+02,1.105923e+04
5.177949e+02,1.110697e+04
5.284015e+02,1.109756e+04
5.390081e+02,1.115557e+04
5.496146e+02,1.120838e+04
5.602212e+02,1.121674e+04
5.708278e+02,1.125132e+04
5.814343e+02,1.133966e+04
5.920409e+02,1.158264e+04
6.026475e+02,1.134283e+04
6.132540e+02,1.129388e+04
6.238606e+02,1.134420e+04
6.344672e+02,1.139652e+04
6.450737e+02,1.136641e+04
6.556803e+02,1.143033e+04
6.662869e+02,1.151127e+04
6.768934e+02,1.294091e+04
6.875000e+02,1.170277e+04
6.981066e+02,1.163631e+04
7.087131e+02,1.142837e+04
7.193197e+02,1.138888e+04
7.299263e+02,1.139391e+04
7.405328e+02,1.257811e+04
7.511394e+02,1.150950e+04
7.617460e+02,1.137038e+04
7.723525e+02,1.154732e+04
7.829591e+02,1.135353e+04
7.935657e+02,1.127942e+04
8.041722e+02,1.122055e+04
8.147788e+02,1.123128e+04
8.253854e+02,1.140982e+04
8.359919e+02,1.137802e+04
8.465985e+02,1.134753e+04
8.572051e+02,1.123826e+04
8.678116e+02,1.115233e+04
8.784182e+02,1.110669e+04
8.890248e+02,1.104284e+04
8.996313e+02,1.102524e+04
9.102379e+02,1.099397e+04
9.208445e+02,1.095573e+04
9.314510e+02,1.094545e+04
9.420576e+02,1.098270e+04
9.526642e+02,1.122666e+04
9.632708e+02,1.085475e+04
9.738773e+02,1.075041e+04
9.844839e+02,1.070930e+04
9.950905e+02,1.071531e+04
1.005697e+03,1.075325e+04
1.016304e+03,1.062508e+04
1.026910e+03,1.061891e+04
1.037517e+03,1.060193e+04
1.048123e+03,1.052380e+04
1.058730e+03,1.047872e+04
1.069336e+03,1.045169e+04
1.079943e+03,1.038477e+04
1.090550e+03,1.038284e+04
1.101156e+03,1.056426e+04
1.111763e+03,1.041196e+04
1.122369e+03,1.030876e+04
1.132976e+03,1.050302e+04
1.143582e+03,1.063608e+04
1.154189e+03,1.022567e+04
1.164796e+03,1.013895e+04
1.175402e+03,1.017178e+04
1.186009e+03,1.023312e+04
1.196615e+03,1.017908e+04
1.207222e+03,1.015821e+04
1.217828e+03,1.008505e+04
1.228435e+03,9.792405e+03
1.239042e+03,9.693391e+03
1.249648e+03,9.612753e+03
1.260255e+03,9.581316e+03
1.270861e+03,9.583404e+03
1.281468e+03,9.487870e+03
1.292074e+03,9.582285e+03
1.302681e+03,9.918284e+03
1.313287e+03,9.538238e+03
1.323894e+03,9.765844e+03
1.334501e+03,1.064638e+04
1.345107e+03,9.509308e+03
1.355714e+03,9.198719e+03
1.366320e+03,9.143253e+03
1.376927e+03,8.964846e+03
1.387533e+03,8.864721e+03
1.398140e+03,8.837903e+03
1.408747e+03,8.784643e+03
1.419353e+03,8.756593e+03
1.429960e+03,8.789182e+03
1.440566e+03,9.075926e+03
1.451173e+03,8.948024e+03
1.461779e+03,8.562108e+03
1.472386e+03,8.497545e+03
1.482993e+03,8.375504e+03
1.493599e+03,8.341693e+03
1.504206e+03,8.453187e+03
1.514812e+03,9.903312e+03
1.525419e+03,1.030182e+04
1.536025e+03,8.445824e+03
1.546632e+03,8.132687e+03
1.557239e+03,7.948937e+03
1.567845e+03,7.870814e+03
1.578452e+03,7.812948e+03
1.589058e+03,7.775409e+03
1.599665e+03,7.742580e+03
1.610271e+03,7.581317e+03
1.620878e+03,7.506435e+03
1.631484e+03,7.404959e+03
1.642091e+03,7.358938e+03
1.652698e+03,7.272446e+03
1.663304e+03,7.195304e+03
1.673911e+03,7.165355e+03
1.684517e+03,7.074589e+03
1.695124e+03,7.027377e+03
1.705730e+03,6.964906e+03
1.716337e+03,6.853863e+03
1.726944e+03,6.807494e+03
1.737550e+03,6.758539e+03
1.748157e+03,6.713432e+03
1.758763e+03,6.637065e+03
1.769370e+03,6.598188e+03
1.779976e+03,6.519030e+03
1.790583e+03,6.470580e+03
1.801190e+03,6.440160e+03
1.811796e+03,6.376073e+03
1.822403e+03,6.309786e+03
1.833009e+03,6.264315e+03
1.843616e+03,6.242436e+03
1.854222e+03,6.159753e+03
1.864829e+03,6.121300e+03
1.875436e+03,6.086030e+03
1.886042e+03,6.026632e+03
1.896649e+03,5.958392e+03
1.907255e+03,5.947529e+03
1.917862e+03,5.866868e+03
1.928468e+03,5.804994e+03
1.939075e+03,5.788303e+03
1.949682e+03,5.706412e+03
1.960288e+03,5.698721e+03
1.970895e+03,5.610850e+03
1.981501e+03,5.594333e+03
1.992108e+03,5.491829e+03
2.002714e+03,5.469519e+03
2.013321e+03,5.450223e+03
2.023927e+03,5.403119e+03
2.034534e+03,5.347391e+03
2.045141e+03,5.286904e+03
2.055747e+03,5.223284e+03
2.066354e+03,5.192449e+03
2.076960e+03,5.173123e+03
2.087567e+03,5.104304e+03
2.098173e+03,5.086055e+03
2.108780e+03,5.002090e+03
2.119387e+03,4.968302e+03
2.129993e+03,4.929175e+03
2.140600e+03,4.896053e+03
2.151206e+03,4.841912e+03
2.161813e+03,4.782475e+03
2.172419e+03,4.726475e+03
2.183026e+03,4.686755e+03
2.193633e+03,4.668904e+03
2.204239e+03,4.640937e+03
2.214846e+03,4.574900e+03
2.225452e+03,4.511047e+03
2.236059e+03,4.504820e+03
2.246666e+03,4.407119e+03
2.257272e+03,4.357317e+03
2.267879e+03,4.397174e+03
2.278485e+03,4.304734e+03
2.289092e+03,4.276675e+03
2.299698e+03,4.256835e+03
2.310305e+03,4.176000e+03
2.320911e+03,4.156040e+03
2.331518e+03,4.104182e+03
2.342125e+03,4.084698e+03
2.352731e+03,4.034829e+03
2.363338e+03,4.021407e+03
2.373944e+03,3.962445e+03
2.384551e+03,3.926603e+03
2.395157e+03,3.873760e+03
2.405764e+03,3.864857e+03
2.416370e+03,3.821562e+03
2.426977e+03,3.819666e+03
2.437584e+03,3.800791e+03
2.448190e+03,3.726125e+03
2.458797e+03,3.705267e+03
2.469403e+03,3.669964e+03
2.480010e+03,3.684293e+03
2.490616e+03,3.612998e+03
2.501223e+03,3.610800e+03
2.511830e+03,3.549306e+03
2.522436e+03,3.543206e+03
2.533043e+03,3.540420e+03
2.543649e+03,3.496136e+03
2.554256e+03,3.457080e+03
2.564863e+03,3.461700e+03
2.575469e+03,3.407638e+03
2.586075e+03,3.394427e+03
2.596682e+03,3.361621e+03
2.607289e+03,3.336016e+03
2.617895e+03,3.302140e+03
2.628502e+03,3.318706e+03
2.639108e+03,3.323617e+03
2.649715e+03,3.291042e+03
2.660322e+03,3.275942e+03
2.670928e+03,3.274730e+03
2.681535e+03,3.243448e+03
2.692141e+03,3.206798e+03
2.702748e+03,3.202225e+03
2.713354e+03,3.204089e+03
2.723961e+03,3.172337e+03
2.734568e+03,3.180358e+03
2.745174e+03,3.171909e+03
2.755781e+03,3.103448e+03
2.766387e+03,3.130032e+03
2.776994e+03,3.142695e+03
2.787600e+03,3.141071e+03
2.798207e+03,3.116141e+03
2.808813e+03,3.113586e+03
2.819420e+03,3.136686e+03
2.830027e+03,3.081356e+03
2.840633e+03,3.100632e+03
2.851240e+03,3.191789e+03
2.861846e+03,3.148719e+03
2.872453e+03,3.144961e+03
2.883059e+03,3.081596e+03
2.893666e+03,3.104931e+03
2.904273e+03,3.199243e+03
2.914879e+03,3.133861e+03
2.925486e+03,3.191780e+03
2.936092e+03,3.181875e+03
2.946699e+03,3.227711e+03
2.957305e+03,3.249705e+03
2.967912e+03,3.239347e+03
2.978519e+03,3.257895e+03
2.989125e+03,3.255657e+03
2.999732e+03,3.260042e+03
3.010338e+03,3.307259e+03
3.020945e+03,3.380153e+03
3.031552e+03,3.416906e+03
3.042158e+03,3.446906e+03
3.052764e+03,3.448061e+03
3.063371e+03,3.461502e+03
3.073978e+03,3.497815e+03
3.084584e+03,3.487551e+03
3.095191e+03,3.519523e+03
3.105797e+03,3.582367e+03
3.116404e+03,3.537215e+03
3.127010e+03,3.669640e+03
3.137617e+03,3.602131e+03
3.148224e+03,3.704941e+03
3.158830e+03,3.702656e+03
3.169437e+03,3.757406e+03
3.180043e+03,3.798004e+03
3.190650e+03,3.815050e+03
3.200292e+03,3.923862e+03

File: orange frag1.CSV
1.995979e+02,5.400734e+03
2.102045e+02,5.416650e+03
2.208110e+02,5.444203e+03
2.314176e+02,5.439788e+03
2.420242e+02,5.449937e+03
2.526307e+02,5.469741e+03
2.632373e+02,5.435838e+03
2.738439e+02,5.442333e+03
2.844504e+02,5.484623e+03
2.950570e+02,5.469557e+03
3.056636e+02,5.441663e+03
3.162701e+02,5.465088e+03
3.268767e+02,5.454182e+03
3.374833e+02,5.442944e+03
3.480898e+02,5.459073e+03
3.586964e+02,5.435589e+03
3.693030e+02,5.413156e+03
3.799095e+02,5.442385e+03
3.905161e+02,5.421099e+03
4.011227e+02,5.377598e+03
4.117292e+02,5.350623e+03
4.223358e+02,5.365554e+03
4.329424e+02,5.349764e+03
4.435490e+02,5.332427e+03
4.541555e+02,5.306457e+03
4.647621e+02,5.283072e+03
4.753687e+02,5.240889e+03
4.859752e+02,5.210566e+03
4.965818e+02,5.203427e+03
5.071884e+02,5.178287e+03
5.177949e+02,5.175412e+03
5.284015e+02,5.148313e+03
5.390081e+02,5.138890e+03
5.496146e+02,5.102394e+03
5.602212e+02,5.095124e+03
5.708278e+02,5.049646e+03
5.814343e+02,5.029374e+03
5.920409e+02,5.005158e+03
6.026475e+02,4.983005e+03
6.132540e+02,4.970924e+03
6.238606e+02,4.939993e+03
6.344672e+02,4.899416e+03
6.450737e+02,4.869539e+03
6.556803e+02,4.832544e+03
6.662869e+02,4.825323e+03
6.768934e+02,4.808767e+03
6.875000e+02,4.768507e+03
6.981066e+02,4.754554e+03
7.087131e+02,4.696676e+03
7.193197e+02,4.683563e+03
7.299263e+02,4.643273e+03
7.405328e+02,4.650446e+03
7.511394e+02,4.596360e+03
7.617460e+02,4.562982e+03
7.723525e+02,4.543800e+03
7.829591e+02,4.529688e+03
7.935657e+02,4.496849e+03
8.041722e+02,4.476244e+03
8.147788e+02,4.444366e+03
8.253854e+02,4.439354e+03
8.359919e+02,4.380738e+03
8.465985e+02,4.362905e+03
8.572051e+02,4.326401e+03
8.678116e+02,4.323288e+03
8.784182e+02,4.287160e+03
8.890248e+02,4.276820e+03
8.996313e+02,4.234833e+03
9.102379e+02,4.224321e+03
9.208445e+02,4.181137e+03
9.314510e+02,4.176339e+03
9.420576e+02,4.151116e+03
9.526642e+02,4.127795e+03
9.632708e+02,4.115188e+03
9.738773e+02,4.084524e+03
9.844839e+02,4.040862e+03
9.950905e+02,4.048032e+03
1.005697e+03,4.009674e+03
1.016304e+03,3.985011e+03
1.026910e+03,3.975959e+03
1.037517e+03,3.992531e+03
1.048123e+03,3.947307e+03
1.058730e+03,3.946606e+03
1.069336e+03,3.892151e+03
1.079943e+03,3.876021e+03
1.090550e+03,3.918099e+03
1.101156e+03,3.878023e+03
1.111763e+03,3.864508e+03
1.122369e+03,3.847560e+03
1.132976e+03,3.834910e+03
1.143582e+03,3.804002e+03
1.154189e+03,3.816284e+03
1.164796e+03,3.806175e+03
1.175402e+03,3.764829e+03
1.186009e+03,3.736496e+03
1.196615e+03,3.748274e+03
1.207222e+03,3.729452e+03
1.217828e+03,3.720711e+03
1.228435e+03,3.770753e+03
1.239042e+03,3.733229e+03
1.249648e+03,3.703367e+03
1.260255e+03,3.743052e+03
1.270861e+03,3.707778e+03
1.281468e+03,3.714805e+03
1.292074e+03,3.672423e+03
1.302681e+03,3.654172e+03
1.313287e+03,3.641875e+03
1.323894e+03,3.708679e+03
1.334501e+03,3.697497e+03
1.345107e+03,3.651461e+03
1.355714e+03,3.717360e+03
1.366320e+03,3.616182e+03
1.376927e+03,3.572257e+03
1.387533e+03,3.578631e+03
1.398140e+03,3.544296e+03
1.408747e+03,3.483473e+03
1.419353e+03,3.485532e+03
1.429960e+03,3.458617e+03
1.440566e+03,3.443084e+03
1.451173e+03,3.443418e+03
1.461779e+03,3.442615e+03
1.472386e+03,3.397566e+03
1.482993e+03,3.441993e+03
1.493599e+03,3.394816e+03
1.504206e+03,3.372771e+03
1.514812e+03,3.327883e+03
1.525419e+03,3.325830e+03
1.536025e+03,3.291210e+03
1.546632e+03,3.304831e+03
1.557239e+03,3.293355e+03
1.567845e+03,3.324470e+03
1.578452e+03,3.373464e+03
1.589058e+03,3.316097e+03
1.599665e+03,3.275834e+03
1.610271e+03,3.217552e+03
1.620878e+03,3.169798e+03
1.631484e+03,3.137750e+03
1.642091e+03,3.113988e+03
1.652698e+03,3.070127e+03
1.663304e+03,3.077302e+03
1.673911e+03,3.048839e+03
1.684517e+03,3.012581e+03
1.695124e+03,3.014505e+03
1.705730e+03,2.991279e+03
1.716337e+03,2.960155e+03
1.726944e+03,2.940363e+03
1.737550e+03,2.918065e+03
1.748157e+03,2.894155e+03
1.758763e+03,2.873078e+03
1.769370e+03,2.868126e+03
1.779976e+03,2.832764e+03
1.790583e+03,2.802310e+03
1.801190e+03,2.794545e+03
1.811796e+03,2.784075e+03
1.822403e+03,2.757585e+03
1.833009e+03,2.731418e+03
1.843616e+03,2.708988e+03
1.854222e+03,2.683673e+03
1.864829e+03,2.669251e+03
1.875436e+03,2.656339e+03
1.886042e+03,2.601878e+03
1.896649e+03,2.609107e+03
1.907255e+03,2.594336e+03
1.917862e+03,2.554359e+03
1.928468e+03,2.536749e+03
1.939075e+03,2.513279e+03
1.949682e+03,2.486864e+03
1.960288e+03,2.478115e+03
1.970895e+03,2.440488e+03
1.981501e+03,2.428375e+03
1.992108e+03,2.402776e+03
2.002714e+03,2.398048e+03
2.013321e+03,2.365018e+03
2.023927e+03,2.334561e+03
2.034534e+03,2.339027e+03
2.045141e+03,2.299003e+03
2.055747e+03,2.271560e+03
2.066354e+03,2.260192e+03
2.076960e+03,2.225616e+03
2.087567e+03,2.203780e+03
2.098173e+03,2.204040e+03
2.108780e+03,2.185652e+03
2.119387e+03,2.147245e+03
2.129993e+03,2.129032e+03
2.140600e+03,2.088566e+03
2.151206e+03,2.100262e+03
2.161813e+03,2.070982e+03
2.172419e+03,2.047639e+03
2.183026e+03,2.025844e+03
2.193633e+03,2.011948e+03
2.204239e+03,1.998074e+03
2.214846e+03,1.987590e+03
2.225452e+03,1.938384e+03
2.236059e+03,1.935303e+03
2.246666e+03,1.916230e+03
2.257272e+03,1.890963e+03
2.267879e+03,1.878761e+03
2.278485e+03,1.863393e+03
2.289092e+03,1.830278e+03
2.299698e+03,1.816804e+03
2.310305e+03,1.795755e+03
2.320911e+03,1.774242e+03
2.331518e+03,1.770692e+03
2.342125e+03,1.738228e+03
2.352731e+03,1.721425e+03
2.363338e+03,1.727007e+03
2.373944e+03,1.700652e+03
2.384551e+03,1.681542e+03
2.395157e+03,1.672766e+03
2.405764e+03,1.663512e+03
2.416370e+03,1.637149e+03
2.426977e+03,1.634181e+03
2.437584e+03,1.612779e+03
2.448190e+03,1.598008e+03
2.458797e+03,1.584763e+03
2.469403e+03,1.576440e+03
2.480010e+03,1.578681e+03
2.490616e+03,1.542539e+03
2.501223e+03,1.536857e+03
2.511830e+03,1.517549e+03
2.522436e+03,1.495708e+03
2.533043e+03,1.516166e+03
2.543649e+03,1.487955e+03
2.554256e+03,1.477040e+03
2.564863e+03,1.470208e+03
2.575469e+03,1.450938e+03
2.586075e+03,1.446609e+03
2.596682e+03,1.443447e+03
2.607289e+03,1.421590e+03
2.617895e+03,1.410449e+03
2.628502e+03,1.415442e+03
2.639108e+03,1.379687e+03
2.649715e+03,1.385201e+03
2.660322e+03,1.368539e+03
2.670928e+03,1.343823e+03
2.681535e+03,1.335732e+03
2.692141e+03,1.331254e+03
2.702748e+03,1.338181e+03
2.713354e+03,1.312582e+03
2.723961e+03,1.328355e+03
2.734568e+03,1.322176e+03
2.745174e+03,1.298029e+03
2.755781e+03,1.281193e+03
2.766387e+03,1.269711e+03
2.776994e+03,1.261673e+03
2.787600e+03,1.263486e+03
2.798207e+03,1.256749e+03
2.808813e+03,1.250659e+03
2.819420e+03,1.237673e+03
2.830027e+03,1.231612e+03
2.840633e+03,1.209053e+03
2.851240e+03,1.228070e+03
2.861846e+03,1.206936e+03
2.872453e+03,1.197576e+03
2.883059e+03,1.228599e+03
2.893666e+03,1.223378e+03
2.904273e+03,1.214111e+03
2.914879e+03,1.195121e+03
2.925486e+03,1.181173e+03
2.936092e+03,1.201081e+03
2.946699e+03,1.183341e+03
2.957305e+03,1.219255e+03
2.967912e+03,1.170444e+03
2.978519e+03,1.152713e+03
2.989125e+03,1.150811e+03
2.999732e+03,1.112627e+03
3.010338e+03,1.111079e+03
3.020945e+03,1.113733e+03
3.031552e+03,1.082517e+03
3.042158e+03,1.107158e+03
3.052764e+03,1.092123e+03
3.063371e+03,1.102391e+03
3.073978e+03,1.081980e+03
3.084584e+03,1.079225e+03
3.095191e+03,1.112511e+03
3.105797e+03,1.052141e+03
3.116404e+03,1.112416e+03
3.127010e+03,1.060672e+03
3.137617e+03,1.076884e+03
3.148224e+03,1.060445e+03
3.158830e+03,1.069589e+03
3.169437e+03,1.082669e+03
3.180043e+03,1.044855e+03
3.190650e+03,1.052103e+03
3.200292e+03,1.103920e+03

File: red fibre1.CSV
1.995979e+02,8.556306e+03
2.102045e+02,8.561902e+03
2.208110e+02,8.647811e+03
2.314176e+02,8.613690e+03
2.420242e+02,8.644644e+03
2.526307e+02,8.681860e+03
2.632373e+02,8.733043e+03
2.738439e+02,8.755153e+03
2.844504e+02,8.798782e+03
2.950570e+02,8.751938e+03
3.056636e+02,8.784952e+03
3.162701e+02,8.812252e+03
3.268767e+02,8.836679e+03
3.374833e+02,8.796174e+03
3.480898e+02,8.844078e+03
3.586964e+02,8.856595e+03
3.693030e+02,8.816506e+03
3.799095e+02,8.836372e+03
3.905161e+02,8.799750e+03
4.011227e+02,8.812310e+03
4.117292e+02,8.774953e+03
4.223358e+02,8.775436e+03
4.329424e+02,8.736878e+03
4.435490e+02,8.734260e+03
4.541555e+02,8.732829e+03
4.647621e+02,8.686188e+03
4.753687e+02,8.649814e+03
4.859752e+02,8.626176e+03
4.965818e+02,8.636684e+03
5.071884e+02,8.602982e+03
5.177949e+02,8.601964e+03
5.284015e+02,8.564213e+03
5.390081e+02,8.540202e+03
5.496146e+02,8.533841e+03
5.602212e+02,8.479555e+03
5.708278e+02,8.430841e+03
5.814343e+02,8.432224e+03
5.920409e+02,8.389361e+03
6.026475e+02,8.356723e+03
6.132540e+02,8.346289e+03
6.238606e+02,8.327306e+03
6.344672e+02,8.243068e+03
6.450737e+02,8.230428e+03
6.556803e+02,8.223776e+03
6.662869e+02,8.182347e+03
6.768934e+02,8.106808e+03
6.875000e+02,8.087334e+03
6.981066e+02,8.076643e+03
7.087131e+02,7.983023e+03
7.193197e+02,7.980425e+03
7.299263e+02,7.955973e+03
7.405328e+02,7.893558e+03
7.511394e+02,7.842943e+03
7.617460e+02,7.845416e+03
7.723525e+02,7.797826e+03
7.829591e+02,7.763093e+03
7.935657e+02,7.732021e+03
8.041722e+02,7.667615e+03
8.147788e+02,7.644540e+03
8.253854e+02,7.623906e+03
8.359919e+02,7.592144e+03
8.465985e+02,7.533748e+03
8.572051e+02,7.492120e+03
8.678116e+02,7.469003e+03
8.784182e+02,7.437141e+03
8.890248e+02,7.410566e+03
8.996313e+02,7.341857e+03
9.102379e+02,7.297609e+03
9.208445e+02,7.278787e+03
9.314510e+02,7.256550e+03
9.420576e+02,7.162640e+03
9.526642e+02,7.167122e+03
9.632708e+02,7.164286e+03
9.738773e+02,7.094371e+03
9.844839e+02,7.051799e+03
9.950905e+02,7.056724e+03
1.005697e+03,7.009242e+03
1.016304e+03,6.959897e+03
1.026910e+03,6.966289e+03
1.037517e+03,6.940950e+03
1.048123e+03,6.899337e+03
1.058730e+03,6.884662e+03
1.069336e+03,6.876584e+03
1.079943e+03,6.819122e+03
1.090550e+03,6.824826e+03
1.101156e+03,6.795407e+03
1.111763e+03,6.751187e+03
1.122369e+03,6.750917e+03
1.132976e+03,6.740953e+03
1.143582e+03,6.710876e+03
1.154189e+03,6.681638e+03
1.164796e+03,6.687460e+03
1.175402e+03,6.639690e+03
1.186009e+03,6.615289e+03
1.196615e+03,6.640437e+03
1.207222e+03,6.600046e+03
1.217828e+03,6.573827e+03
1.228435e+03,6.589381e+03
1.239042e+03,6.555139e+03
1.249648e+03,6.512463e+03
1.260255e+03,6.528198e+03
1.270861e+03,6.491020e+03
1.281468e+03,6.468678e+03
1.292074e+03,6.473111e+03
1.302681e+03,6.457471e+03
1.313287e+03,6.408352e+03
1.323894e+03,6.410399e+03
1.334501e+03,6.420948e+03
1.345107e+03,6.389137e+03
1.355714e+03,6.361829e+03
1.366320e+03,6.342625e+03
1.376927e+03,6.296198e+03
1.387533e+03,6.263109e+03
1.398140e+03,6.234920e+03
1.408747e+03,6.197431e+03
1.419353e+03,6.186417e+03
1.429960e+03,6.165091e+03
1.440566e+03,6.141045e+03
1.451173e+03,6.113110e+03
1.461779e+03,6.100394e+03
1.472386e+03,6.036549e+03
1.482993e+03,6.038399e+03
1.493599e+03,5.999333e+03
1.504206e+03,6.010560e+03
1.514812e+03,5.960559e+03
1.525419e+03,5.958783e+03
1.536025e+03,5.920833e+03
1.546632e+03,5.886854e+03
1.557239e+03,5.882093e+03
1.567845e+03,5.879284e+03
1.578452e+03,5.857630e+03
1.589058e+03,5.843414e+03
1.599665e+03,5.813395e+03
1.610271e+03,5.772590e+03
1.620878e+03,5.739749e+03
1.631484e+03,5.677513e+03
1.642091e+03,5.643063e+03
1.652698e+03,5.616671e+03
1.663304e+03,5.527564e+03
1.673911e+03,5.519976e+03
1.684517e+03,5.497531e+03
1.695124e+03,5.452671e+03
1.705730e+03,5.411821e+03
1.716337e+03,5.375979e+03
1.726944e+03,5.312499e+03
1.737550e+03,5.298498e+03
1.748157e+03,5.262391e+03
1.758763e+03,5.249309e+03
1.769370e+03,5.220320e+03
1.779976e+03,5.157364e+03
1.790583e+03,5.123409e+03
1.801190e+03,5.104750e+03
1.811796e+03,5.067067e+03
1.822403e+03,5.031284e+03
1.833009e+03,5.000639e+03
1.843616e+03,4.969961e+03
1.854222e+03,4.930273e+03
1.864829e+03,4.906861e+03
1.875436e+03,4.869963e+03
1.886042e+03,4.823963e+03
1.896649e+03,4.756538e+03
1.907255e+03,4.768625e+03
1.917862e+03,4.689797e+03
1.928468e+03,4.676623e+03
1.939075e+03,4.685243e+03
1.949682e+03,4.589217e+03
1.960288e+03,4.548247e+03
1.970895e+03,4.508757e+03
1.981501e+03,4.480969e+03
1.992108e+03,4.463800e+03
2.002714e+03,4.442249e+03
2.013321e+03,4.365817e+03
2.023927e+03,4.322941e+03
2.034534e+03,4.318417e+03
2.045141e+03,4.259956e+03
2.055747e+03,4.215425e+03
2.066354e+03,4.197787e+03
2.076960e+03,4.122989e+03
2.087567e+03,4.135141e+03
2.098173e+03,4.081205e+03
2.108780e+03,4.056811e+03
2.119387e+03,4.010313e+03
2.129993e+03,3.940441e+03
2.140600e+03,3.930667e+03
2.151206e+03,3.889102e+03
2.161813e+03,3.858372e+03
2.172419e+03,3.829145e+03
2.183026e+03,3.784075e+03
2.193633e+03,3.747726e+03
2.204239e+03,3.741903e+03
2.214846e+03,3.686950e+03
2.225452e+03,3.629964e+03
2.236059e+03,3.633761e+03
2.246666e+03,3.560134e+03
2.257272e+03,3.526625e+03
2.267879e+03,3.487405e+03
2.278485e+03,3.463571e+03
2.289092e+03,3.420397e+03
2.299698e+03,3.433301e+03
2.310305e+03,3.392224e+03
2.320911e+03,3.354685e+03
2.331518e+03,3.318354e+03
2.342125e+03,3.254880e+03
2.352731e+03,3.250687e+03
2.363338e+03,3.239979e+03
2.373944e+03,3.166055e+03
2.384551e+03,3.161761e+03
2.395157e+03,3.124119e+03
2.405764e+03,3.095335e+03
2.416370e+03,3.074042e+03
2.426977e+03,3.058306e+03
2.437584e+03,3.035113e+03
2.448190e+03,3.001455e+03
2.458797e+03,2.970987e+03
2.469403e+03,2.916963e+03
2.480010e+03,2.948536e+03
2.490616e+03,2.875225e+03
2.501223e+03,2.879828e+03
2.511830e+03,2.864077e+03
2.522436e+03,2.826379e+03
2.533043e+03,2.790523e+03
2.543649e+03,2.801321e+03
2.554256e+03,2.769201e+03
2.564863e+03,2.763232e+03
2.575469e+03,2.746509e+03
2.586075e+03,2.703460e+03
2.596682e+03,2.688277e+03
2.607289e+03,2.607434e+03
2.617895e+03,2.631105e+03
2.628502e+03,2.641281e+03
2.639108e+03,2.610967e+03
2.649715e+03,2.574177e+03
2.660322e+03,2.587114e+03
2.670928e+03,2.564683e+03
2.681535e+03,2.556097e+03
2.692141e+03,2.514356e+03
2.702748e+03,2.502213e+03
2.713354e+03,2.474185e+03
2.723961e+03,2.460087e+03
2.734568e+03,2.437472e+03
2.745174e+03,2.436053e+03
2.755781e+03,2.408460e+03
2.766387e+03,2.383864e+03
2.776994e+03,2.372379e+03
2.787600e+03,2.368212e+03
2.798207e+03,2.351082e+03
2.808813e+03,2.351978e+03
2.819420e+03,2.336262e+03
2.830027e+03,2.319863e+03
2.840633e+03,2.294710e+03
2.851240e+03,2.287875e+03
2.861846e+03,2.291646e+03
2.872453e+03,2.315738e+03
2.883059e+03,2.272785e+03
2.893666e+03,2.226020e+03
2.904273e+03,2.263065e+03
2.914879e+03,2.237454e+03
2.925486e+03,2.223512e+03
2.936092e+03,2.183100e+03
2.946699e+03,2.192208e+03
2.957305e+03,2.244634e+03
2.967912e+03,2.102801e+03
2.978519e+03,2.103197e+03
2.989125e+03,2.123838e+03
2.999732e+03,2.072334e+03
3.010338e+03,2.093452e+03
3.020945e+03,2.101088e+03
3.031552e+03,2.066802e+03
3.042158e+03,2.028055e+03
3.052764e+03,2.079156e+03
3.063371e+03,2.046543e+03
3.073978e+03,2.008402e+03
3.084584e+03,2.050042e+03
3.095191e+03,1.996459e+03
3.105797e+03,1.951774e+03
3.116404e+03,1.995784e+03
3.127010e+03,2.001529e+03
3.137617e+03,2.030430e+03
3.148224e+03,2.001946e+03
3.158830e+03,2.017120e+03
3.169437e+03,1.957804e+03
3.180043e+03,1.973126e+03
3.190650e+03,1.979658e+03
3.200292e+03,2.035504e+03