Folder: Taff_Bargoed_microplastics_data/RAMAN_data/20012023_r3 (part 8)

File: blue fibre11.CSV
9.931763e+01,0.000000e+00
1.108884e+02,0.000000e+00
1.224592e+02,0.000000e+00
1.340300e+02,0.000000e+00
1.456008e+02,0.000000e+00
1.571716e+02,0.000000e+00
1.687424e+02,0.000000e+00
1.803132e+02,0.000000e+00
1.918840e+02,0.000000e+00
2.034548e+02,6.171958e+03
2.150256e+02,6.201817e+03
2.265964e+02,6.199416e+03
2.381673e+02,6.261430e+03
2.497381e+02,6.281404e+03
2.613088e+02,6.276624e+03
2.728796e+02,6.320971e+03
2.844504e+02,6.328127e+03
2.960212e+02,6.360468e+03
3.075920e+02,6.339902e+03
3.191628e+02,6.374532e+03
3.307336e+02,6.385308e+03
3.423044e+02,6.408316e+03
3.538752e+02,6.402583e+03
3.654461e+02,6.411370e+03
3.770169e+02,6.467585e+03
3.885877e+02,6.447187e+03
4.001585e+02,6.424773e+03
4.117293e+02,6.431223e+03
4.233001e+02,6.469673e+03
4.348709e+02,6.451070e+03
4.464417e+02,6.443851e+03
4.580125e+02,6.467370e+03
4.695833e+02,6.456781e+03
4.811541e+02,6.455196e+03
4.927249e+02,6.476447e+03
5.042957e+02,6.476284e+03
5.158665e+02,6.495680e+03
5.274373e+02,6.475268e+03
5.390081e+02,6.466251e+03
5.505789e+02,6.474766e+03
5.621497e+02,6.476544e+03
5.737205e+02,6.461422e+03
5.852913e+02,6.447094e+03
5.968621e+02,6.450964e+03
6.084329e+02,6.448694e+03
6.200037e+02,6.447356e+03
6.315745e+02,6.436602e+03
6.431453e+02,6.433291e+03
6.547161e+02,6.444534e+03
6.662869e+02,6.419645e+03
6.778577e+02,6.415605e+03
6.894285e+02,6.386772e+03
7.009993e+02,6.395891e+03
7.125701e+02,6.413594e+03
7.241409e+02,6.399653e+03
7.357117e+02,6.352703e+03
7.472825e+02,6.461063e+03
7.588533e+02,6.358415e+03
7.704241e+02,6.338672e+03
7.819949e+02,6.322623e+03
7.935657e+02,6.319255e+03
8.051365e+02,6.296349e+03
8.167073e+02,6.276737e+03
8.282781e+02,6.300641e+03
8.398489e+02,6.262104e+03
8.514197e+02,6.245951e+03
8.629905e+02,6.224495e+03
8.745613e+02,6.246856e+03
8.861321e+02,6.231236e+03
8.977029e+02,6.207565e+03
9.092737e+02,6.186711e+03
9.208445e+02,6.130627e+03
9.324153e+02,6.131911e+03
9.439861e+02,6.106683e+03
9.555569e+02,6.104040e+03
9.671277e+02,6.104333e+03
9.786985e+02,6.088609e+03
9.902693e+02,6.034497e+03
1.001840e+03,5.992875e+03
1.013411e+03,5.998829e+03
1.024982e+03,6.002442e+03
1.036552e+03,5.999566e+03
1.048123e+03,5.961098e+03
1.059694e+03,5.966998e+03
1.071265e+03,5.963767e+03
1.082836e+03,5.936096e+03
1.094406e+03,5.917261e+03
1.105977e+03,5.929250e+03
1.117548e+03,5.915890e+03
1.129119e+03,5.875023e+03
1.140690e+03,5.878500e+03
1.152261e+03,5.885158e+03
1.163831e+03,5.883393e+03
1.175402e+03,5.817006e+03
1.186973e+03,5.821276e+03
1.198544e+03,5.833506e+03
1.210115e+03,5.798719e+03
1.221685e+03,5.753628e+03
1.233256e+03,5.722365e+03
1.244827e+03,5.722361e+03
1.256398e+03,5.726905e+03
1.267969e+03,5.709075e+03
1.279539e+03,5.690625e+03
1.291110e+03,5.675180e+03
1.302681e+03,5.676193e+03
1.314252e+03,5.661866e+03
1.325823e+03,5.652819e+03
1.337393e+03,5.712332e+03
1.348964e+03,5.654358e+03
1.360535e+03,5.547322e+03
1.372106e+03,5.509306e+03
1.383677e+03,5.492022e+03
1.395247e+03,5.473000e+03
1.406818e+03,5.441120e+03
1.418389e+03,5.421406e+03
1.429960e+03,5.396071e+03
1.441531e+03,5.372298e+03
1.453101e+03,5.347478e+03
1.464672e+03,5.330653e+03
1.476243e+03,5.297229e+03
1.487814e+03,5.265024e+03
1.499385e+03,5.246702e+03
1.510955e+03,5.231986e+03
1.522526e+03,5.238172e+03
1.534097e+03,5.257281e+03
1.545668e+03,5.277005e+03
1.557239e+03,5.203992e+03
1.568809e+03,5.199253e+03
1.580380e+03,5.156729e+03
1.591951e+03,5.149115e+03
1.603522e+03,5.126032e+03
1.615093e+03,5.086161e+03
1.626663e+03,5.045554e+03
1.638234e+03,5.005545e+03
1.649805e+03,4.979600e+03
1.661376e+03,4.930475e+03
1.672947e+03,4.923040e+03
1.684517e+03,4.872023e+03
1.696088e+03,4.857201e+03
1.707659e+03,4.820783e+03
1.719230e+03,4.815429e+03
1.730801e+03,4.803123e+03
1.742371e+03,4.803025e+03
1.753942e+03,4.771964e+03
1.765513e+03,4.746381e+03
1.777084e+03,4.731967e+03
1.788655e+03,4.699015e+03
1.800225e+03,4.695384e+03
1.811796e+03,4.675481e+03
1.823367e+03,4.636114e+03
1.834938e+03,4.631893e+03
1.846509e+03,4.627218e+03
1.858079e+03,4.590111e+03
1.869650e+03,4.512722e+03
1.881221e+03,4.525096e+03
1.892792e+03,4.523037e+03
1.904363e+03,4.479673e+03
1.915933e+03,4.502210e+03
1.927504e+03,4.473086e+03
1.939075e+03,4.407455e+03
1.950646e+03,4.411090e+03
1.962217e+03,4.347299e+03
1.973787e+03,4.301093e+03
1.985358e+03,4.324483e+03
1.996929e+03,4.320138e+03
2.008500e+03,4.276372e+03
2.020071e+03,4.257410e+03
2.031641e+03,4.235586e+03
2.043212e+03,4.225710e+03
2.054783e+03,4.147220e+03
2.066354e+03,4.143321e+03
2.077925e+03,4.110970e+03
2.089496e+03,4.087456e+03
2.101066e+03,4.047025e+03
2.112637e+03,4.043222e+03
2.124208e+03,4.026401e+03
2.135779e+03,3.992770e+03
2.147350e+03,3.936897e+03
2.158920e+03,3.932957e+03
2.170491e+03,3.887744e+03
2.182062e+03,3.865940e+03
2.193633e+03,3.829241e+03
2.205204e+03,3.829376e+03
2.216774e+03,3.783169e+03
2.228345e+03,3.743889e+03
2.239916e+03,3.699586e+03
2.251487e+03,3.702054e+03
2.263058e+03,3.673583e+03
2.274628e+03,3.620008e+03
2.286199e+03,3.600266e+03
2.297770e+03,3.565794e+03
2.309341e+03,3.557730e+03
2.320912e+03,3.492438e+03
2.332482e+03,3.466885e+03
2.344053e+03,3.459380e+03
2.355624e+03,3.421445e+03
2.367195e+03,3.369525e+03
2.378766e+03,3.371870e+03
2.390336e+03,3.325703e+03
2.401907e+03,3.320125e+03
2.413478e+03,3.283758e+03
2.425049e+03,3.255347e+03
2.436620e+03,3.243165e+03
2.448190e+03,3.207661e+03
2.459761e+03,3.187412e+03
2.471332e+03,3.152514e+03
2.482903e+03,3.126466e+03
2.494474e+03,3.099294e+03
2.506044e+03,3.085978e+03
2.517615e+03,3.072238e+03
2.529186e+03,3.018194e+03
2.540757e+03,3.027566e+03
2.552328e+03,2.975395e+03
2.563898e+03,2.984198e+03
2.575469e+03,2.967092e+03
2.587040e+03,2.946777e+03
2.598611e+03,2.923122e+03
2.610182e+03,2.883161e+03
2.621752e+03,2.882438e+03
2.633323e+03,2.883385e+03
2.644894e+03,2.844464e+03
2.656465e+03,2.823888e+03
2.668036e+03,2.786928e+03
2.679606e+03,2.799806e+03
2.691177e+03,2.783894e+03
2.702748e+03,2.763970e+03
2.714319e+03,2.747862e+03
2.725890e+03,2.732550e+03
2.737460e+03,2.703344e+03
2.749031e+03,2.687626e+03
2.760602e+03,2.675656e+03
2.772173e+03,2.707618e+03
2.783744e+03,2.653125e+03
2.795314e+03,2.627677e+03
2.806885e+03,2.629884e+03
2.818456e+03,2.633530e+03
2.830027e+03,2.608478e+03
2.841598e+03,2.609788e+03
2.853168e+03,2.568001e+03
2.864739e+03,2.592271e+03
2.876310e+03,2.576126e+03
2.887881e+03,2.553295e+03
2.899452e+03,2.572091e+03
2.911022e+03,2.552137e+03
2.922593e+03,2.510680e+03
2.934164e+03,2.499401e+03
2.945735e+03,2.485049e+03
2.957306e+03,2.532508e+03
2.968876e+03,2.468106e+03
2.980447e+03,2.473475e+03
2.992018e+03,2.437121e+03
3.003589e+03,2.447151e+03
3.015160e+03,2.428265e+03
3.026730e+03,2.386450e+03
3.038301e+03,2.404498e+03
3.049872e+03,2.382386e+03
3.061443e+03,2.337360e+03
3.073014e+03,2.373092e+03
3.084584e+03,2.319360e+03
3.096155e+03,2.383586e+03
3.107726e+03,2.391484e+03
3.119297e+03,2.360821e+03
3.130868e+03,2.384481e+03
3.142438e+03,2.309112e+03
3.154009e+03,2.378571e+03
3.165580e+03,2.391106e+03
3.177151e+03,2.335882e+03
3.188722e+03,2.364589e+03
3.200292e+03,2.414367e+03
3.211863e+03,0.000000e+00
3.223434e+03,0.000000e+00
3.235005e+03,0.000000e+00
3.246576e+03,0.000000e+00
3.258146e+03,0.000000e+00
3.269717e+03,0.000000e+00
3.281288e+03,0.000000e+00
3.292859e+03,0.000000e+00
3.304430e+03,0.000000e+00
3.316000e+03,0.000000e+00
3.327571e+03,0.000000e+00
3.339142e+03,0.000000e+00
3.350713e+03,0.000000e+00
3.362284e+03,0.000000e+00
3.373854e+03,0.000000e+00
3.385425e+03,0.000000e+00
3.396996e+03,0.000000e+00
3.408567e+03,0.000000e+00
3.420138e+03,0.000000e+00
3.431708e+03,0.000000e+00
3.443279e+03,0.000000e+00
3.454850e+03,0.000000e+00
3.466421e+03,0.000000e+00
3.477992e+03,0.000000e+00
3.489563e+03,0.000000e+00
3.500169e+03,0.000000e+00

File: blue fibre12.CSV
9.931763e+01,0.000000e+00
1.108884e+02,0.000000e+00
1.224592e+02,0.000000e+00
1.340300e+02,0.000000e+00
1.456008e+02,0.000000e+00
1.571716e+02,0.000000e+00
1.687424e+02,0.000000e+00
1.803132e+02,0.000000e+00
1.918840e+02,0.000000e+00
2.034548e+02,2.881408e+03
2.150256e+02,2.902283e+03
2.265964e+02,2.911849e+03
2.381673e+02,2.932598e+03
2.497381e+02,2.938630e+03
2.613088e+02,2.956266e+03
2.728796e+02,2.978850e+03
2.844504e+02,2.986587e+03
2.960212e+02,3.007647e+03
3.075920e+02,3.018488e+03
3.191628e+02,3.026695e+03
3.307336e+02,3.048869e+03
3.423044e+02,3.059816e+03
3.538752e+02,3.067138e+03
3.654461e+02,3.067847e+03
3.770169e+02,3.111323e+03
3.885877e+02,3.094494e+03
4.001585e+02,3.090941e+03
4.117293e+02,3.077874e+03
4.233001e+02,3.088863e+03
4.348709e+02,3.103205e+03
4.464417e+02,3.093277e+03
4.580125e+02,3.111436e+03
4.695833e+02,3.105785e+03
4.811541e+02,3.090095e+03
4.927249e+02,3.091027e+03
5.042957e+02,3.096816e+03
5.158665e+02,3.120614e+03
5.274373e+02,3.100703e+03
5.390081e+02,3.060608e+03
5.505789e+02,3.080270e+03
5.621497e+02,3.091516e+03
5.737205e+02,3.060458e+03
5.852913e+02,3.066215e+03
5.968621e+02,3.059672e+03
6.084329e+02,3.045851e+03
6.200037e+02,3.021387e+03
6.315745e+02,3.022437e+03
6.431453e+02,3.005739e+03
6.547161e+02,3.013073e+03
6.662869e+02,3.010434e+03
6.778577e+02,2.981177e+03
6.894285e+02,2.977787e+03
7.009993e+02,2.969063e+03
7.125701e+02,2.934351e+03
7.241409e+02,2.908607e+03
7.357117e+02,2.911695e+03
7.472825e+02,2.898143e+03
7.588533e+02,2.884490e+03
7.704241e+02,2.856176e+03
7.819949e+02,2.862500e+03
7.935657e+02,2.826220e+03
8.051365e+02,2.815232e+03
8.167073e+02,2.789806e+03
8.282781e+02,2.790084e+03
8.398489e+02,2.758128e+03
8.514197e+02,2.746582e+03
8.629905e+02,2.728936e+03
8.745613e+02,2.701016e+03
8.861321e+02,2.697984e+03
8.977029e+02,2.684035e+03
9.092737e+02,2.651681e+03
9.208445e+02,2.636900e+03
9.324153e+02,2.617927e+03
9.439861e+02,2.585100e+03
9.555569e+02,2.565052e+03
9.671277e+02,2.566142e+03
9.786985e+02,2.534959e+03
9.902693e+02,2.505918e+03
1.001840e+03,2.495134e+03
1.013411e+03,2.470239e+03
1.024982e+03,2.453738e+03
1.036552e+03,2.468391e+03
1.048123e+03,2.439037e+03
1.059694e+03,2.420304e+03
1.071265e+03,2.410011e+03
1.082836e+03,2.405977e+03
1.094406e+03,2.409786e+03
1.105977e+03,2.369586e+03
1.117548e+03,2.372646e+03
1.129119e+03,2.344896e+03
1.140690e+03,2.318650e+03
1.152261e+03,2.315952e+03
1.163831e+03,2.292096e+03
1.175402e+03,2.265451e+03
1.186973e+03,2.240457e+03
1.198544e+03,2.236477e+03
1.210115e+03,2.226948e+03
1.221685e+03,2.219853e+03
1.233256e+03,2.205500e+03
1.244827e+03,2.211047e+03
1.256398e+03,2.174096e+03
1.267969e+03,2.166052e+03
1.279539e+03,2.139187e+03
1.291110e+03,2.144047e+03
1.302681e+03,2.123147e+03
1.314252e+03,2.107564e+03
1.325823e+03,2.096418e+03
1.337393e+03,2.096821e+03
1.348964e+03,2.089462e+03
1.360535e+03,2.075001e+03
1.372106e+03,2.055394e+03
1.383677e+03,2.041240e+03
1.395247e+03,2.016377e+03
1.406818e+03,2.024063e+03
1.418389e+03,2.020368e+03
1.429960e+03,1.994046e+03
1.441531e+03,1.986740e+03
1.453101e+03,1.968336e+03
1.464672e+03,1.940828e+03
1.476243e+03,1.972014e+03
1.487814e+03,1.961266e+03
1.499385e+03,1.918752e+03
1.510955e+03,1.925618e+03
1.522526e+03,1.959580e+03
1.534097e+03,1.912248e+03
1.545668e+03,1.889688e+03
1.557239e+03,1.877182e+03
1.568809e+03,1.880920e+03
1.580380e+03,1.858548e+03
1.591951e+03,1.856795e+03
1.603522e+03,1.875712e+03
1.615093e+03,1.858571e+03
1.626663e+03,1.815502e+03
1.638234e+03,1.797273e+03
1.649805e+03,1.778827e+03
1.661376e+03,1.763541e+03
1.672947e+03,1.750130e+03
1.684517e+03,1.743656e+03
1.696088e+03,1.728667e+03
1.707659e+03,1.720002e+03
1.719230e+03,1.702673e+03
1.730801e+03,1.685325e+03
1.742371e+03,1.678760e+03
1.753942e+03,1.667238e+03
1.765513e+03,1.667256e+03
1.777084e+03,1.642893e+03
1.788655e+03,1.641422e+03
1.800225e+03,1.631420e+03
1.811796e+03,1.596024e+03
1.823367e+03,1.599837e+03
1.834938e+03,1.585720e+03
1.846509e+03,1.578413e+03
1.858079e+03,1.573562e+03
1.869650e+03,1.554806e+03
1.881221e+03,1.543883e+03
1.892792e+03,1.530973e+03
1.904363e+03,1.510948e+03
1.915933e+03,1.510384e+03
1.927504e+03,1.494577e+03
1.939075e+03,1.489344e+03
1.950646e+03,1.464788e+03
1.962217e+03,1.448607e+03
1.973787e+03,1.454372e+03
1.985358e+03,1.421747e+03
1.996929e+03,1.415871e+03
2.008500e+03,1.395329e+03
2.020071e+03,1.389987e+03
2.031641e+03,1.375425e+03
2.043212e+03,1.355111e+03
2.054783e+03,1.362652e+03
2.066354e+03,1.342190e+03
2.077925e+03,1.317942e+03
2.089496e+03,1.303505e+03
2.101066e+03,1.311695e+03
2.112637e+03,1.275345e+03
2.124208e+03,1.286622e+03
2.135779e+03,1.248462e+03
2.147350e+03,1.226939e+03
2.158920e+03,1.236581e+03
2.170491e+03,1.224184e+03
2.182062e+03,1.202933e+03
2.193633e+03,1.199968e+03
2.205204e+03,1.187372e+03
2.216774e+03,1.173616e+03
2.228345e+03,1.145690e+03
2.239916e+03,1.181892e+03
2.251487e+03,1.151931e+03
2.263058e+03,1.139901e+03
2.274628e+03,1.114440e+03
2.286199e+03,1.099983e+03
2.297770e+03,1.093726e+03
2.309341e+03,1.077575e+03
2.320912e+03,1.073914e+03
2.332482e+03,1.061806e+03
2.344053e+03,1.048328e+03
2.355624e+03,1.029691e+03
2.367195e+03,1.007161e+03
2.378766e+03,1.014328e+03
2.390336e+03,1.004837e+03
2.401907e+03,1.003874e+03
2.413478e+03,9.782735e+02
2.425049e+03,9.810181e+02
2.436620e+03,9.741026e+02
2.448190e+03,9.487128e+02
2.459761e+03,9.374936e+02
2.471332e+03,9.354018e+02
2.482903e+03,9.225524e+02
2.494474e+03,9.129233e+02
2.506044e+03,8.985123e+02
2.517615e+03,9.077535e+02
2.529186e+03,8.909358e+02
2.540757e+03,9.002669e+02
2.552328e+03,8.810569e+02
2.563898e+03,8.961954e+02
2.575469e+03,8.703414e+02
2.587040e+03,8.534520e+02
2.598611e+03,8.415602e+02
2.610182e+03,8.392213e+02
2.621752e+03,8.412784e+02
2.633323e+03,8.227784e+02
2.644894e+03,8.243754e+02
2.656465e+03,8.263597e+02
2.668036e+03,8.172293e+02
2.679606e+03,7.956516e+02
2.691177e+03,7.914578e+02
2.702748e+03,7.859173e+02
2.714319e+03,7.724856e+02
2.725890e+03,7.792701e+02
2.737460e+03,7.553456e+02
2.749031e+03,7.669848e+02
2.760602e+03,7.604700e+02
2.772173e+03,7.531119e+02
2.783744e+03,7.437889e+02
2.795314e+03,7.411213e+02
2.806885e+03,7.239593e+02
2.818456e+03,7.155228e+02
2.830027e+03,7.127097e+02
2.841598e+03,7.025793e+02
2.853168e+03,7.319247e+02
2.864739e+03,7.028038e+02
2.876310e+03,7.360544e+02
2.887881e+03,7.401533e+02
2.899452e+03,7.423499e+02
2.911022e+03,7.269781e+02
2.922593e+03,7.062051e+02
2.934164e+03,6.884142e+02
2.945735e+03,7.003889e+02
2.957306e+03,7.198720e+02
2.968876e+03,6.926013e+02
2.980447e+03,6.653369e+02
2.992018e+03,6.373575e+02
3.003589e+03,6.354907e+02
3.015160e+03,6.299692e+02
3.026730e+03,6.213613e+02
3.038301e+03,6.429006e+02
3.049872e+03,6.313816e+02
3.061443e+03,6.396843e+02
3.073014e+03,6.262858e+02
3.084584e+03,6.462409e+02
3.096155e+03,6.059336e+02
3.107726e+03,6.212482e+02
3.119297e+03,6.268805e+02
3.130868e+03,6.616718e+02
3.142438e+03,6.255978e+02
3.154009e+03,6.362822e+02
3.165580e+03,6.391464e+02
3.177151e+03,5.905208e+02
3.188722e+03,6.416019e+02
3.200292e+03,6.374064e+02
3.211863e+03,0.000000e+00
3.223434e+03,0.000000e+00
3.235005e+03,0.000000e+00
3.246576e+03,0.000000e+00
3.258146e+03,0.000000e+00
3.269717e+03,0.000000e+00
3.281288e+03,0.000000e+00
3.292859e+03,0.000000e+00
3.304430e+03,0.000000e+00
3.316000e+03,0.000000e+00
3.327571e+03,0.000000e+00
3.339142e+03,0.000000e+00
3.350713e+03,0.000000e+00
3.362284e+03,0.000000e+00
3.373854e+03,0.000000e+00
3.385425e+03,0.000000e+00
3.396996e+03,0.000000e+00
3.408567e+03,0.000000e+00
3.420138e+03,0.000000e+00
3.431708e+03,0.000000e+00
3.443279e+03,0.000000e+00
3.454850e+03,0.000000e+00
3.466421e+03,0.000000e+00
3.477992e+03,0.000000e+00
3.489563e+03,0.000000e+00
3.500169e+03,0.000000e+00

File: blue fibre13.CSV
9.931763e+01,0.000000e+00
1.108884e+02,0.000000e+00
1.224592e+02,0.000000e+00
1.340300e+02,0.000000e+00
1.456008e+02,0.000000e+00
1.571716e+02,0.000000e+00
1.687424e+02,0.000000e+00
1.803132e+02,0.000000e+00
1.918840e+02,0.000000e+00
2.034548e+02,5.877933e+03
2.150256e+02,5.936053e+03
2.265964e+02,6.003690e+03
2.381673e+02,6.118850e+03
2.497381e+02,6.246465e+03
2.613088e+02,6.334424e+03
2.728796e+02,6.414107e+03
2.844504e+02,6.561875e+03
2.960212e+02,6.525897e+03
3.075920e+02,6.573974e+03
3.191628e+02,6.585269e+03
3.307336e+02,6.664598e+03
3.423044e+02,6.697915e+03
3.538752e+02,6.785021e+03
3.654461e+02,6.785286e+03
3.770169e+02,6.865179e+03
3.885877e+02,6.886379e+03
4.001585e+02,6.922367e+03
4.117293e+02,6.933143e+03
4.233001e+02,6.956099e+03
4.348709e+02,7.005378e+03
4.464417e+02,7.038003e+03
4.580125e+02,7.058192e+03
4.695833e+02,7.072562e+03
4.811541e+02,7.062846e+03
4.927249e+02,7.076372e+03
5.042957e+02,7.087381e+03
5.158665e+02,7.134935e+03
5.274373e+02,7.147006e+03
5.390081e+02,7.155322e+03
5.505789e+02,7.247020e+03
5.621497e+02,7.287927e+03
5.737205e+02,7.149085e+03
5.852913e+02,7.102882e+03
5.968621e+02,7.130583e+03
6.084329e+02,7.167860e+03
6.200037e+02,7.096985e+03
6.315745e+02,7.083018e+03
6.431453e+02,7.010097e+03
6.547161e+02,6.998079e+03
6.662869e+02,6.981370e+03
6.778577e+02,6.931516e+03
6.894285e+02,6.880188e+03
7.009993e+02,6.866763e+03
7.125701e+02,6.816273e+03
7.241409e+02,6.779808e+03
7.357117e+02,6.738189e+03
7.472825e+02,6.738742e+03
7.588533e+02,6.695255e+03
7.704241e+02,6.618415e+03
7.819949e+02,6.629317e+03
7.935657e+02,6.610306e+03
8.051365e+02,6.532731e+03
8.167073e+02,6.458452e+03
8.282781e+02,6.404893e+03
8.398489e+02,6.406673e+03
8.514197e+02,6.331958e+03
8.629905e+02,6.282415e+03
8.745613e+02,6.235972e+03
8.861321e+02,6.199320e+03
8.977029e+02,6.162418e+03
9.092737e+02,6.074691e+03
9.208445e+02,6.010651e+03
9.324153e+02,5.943990e+03
9.439861e+02,5.917478e+03
9.555569e+02,5.853274e+03
9.671277e+02,5.806383e+03
9.786985e+02,5.762253e+03
9.902693e+02,5.692756e+03
1.001840e+03,5.627052e+03
1.013411e+03,5.619919e+03
1.024982e+03,5.537128e+03
1.036552e+03,5.499467e+03
1.048123e+03,5.444714e+03
1.059694e+03,5.428834e+03
1.071265e+03,5.400785e+03
1.082836e+03,5.369704e+03
1.094406e+03,5.318678e+03
1.105977e+03,5.221383e+03
1.117548e+03,5.193208e+03
1.129119e+03,5.103158e+03
1.140690e+03,5.054188e+03
1.152261e+03,5.013552e+03
1.163831e+03,4.966096e+03
1.175402e+03,4.902403e+03
1.186973e+03,4.884057e+03
1.198544e+03,4.858897e+03
1.210115e+03,4.786569e+03
1.221685e+03,4.738880e+03
1.233256e+03,4.693369e+03
1.244827e+03,4.650708e+03
1.256398e+03,4.599635e+03
1.267969e+03,4.541371e+03
1.279539e+03,4.503220e+03
1.291110e+03,4.482390e+03
1.302681e+03,4.432034e+03
1.314252e+03,4.418923e+03
1.325823e+03,4.361723e+03
1.337393e+03,4.334529e+03
1.348964e+03,4.295154e+03
1.360535e+03,4.269583e+03
1.372106e+03,4.200150e+03
1.383677e+03,4.199108e+03
1.395247e+03,4.146584e+03
1.406818e+03,4.085513e+03
1.418389e+03,4.074443e+03
1.429960e+03,4.025172e+03
1.441531e+03,3.994517e+03
1.453101e+03,3.993421e+03
1.464672e+03,3.955482e+03
1.476243e+03,3.908793e+03
1.487814e+03,3.901673e+03
1.499385e+03,3.847032e+03
1.510955e+03,3.857578e+03
1.522526e+03,3.798617e+03
1.534097e+03,3.749584e+03
1.545668e+03,3.734026e+03
1.557239e+03,3.736523e+03
1.568809e+03,3.787437e+03
1.580380e+03,3.747979e+03
1.591951e+03,3.661823e+03
1.603522e+03,3.612699e+03
1.615093e+03,3.566111e+03
1.626663e+03,3.549251e+03
1.638234e+03,3.522879e+03
1.649805e+03,3.475431e+03
1.661376e+03,3.456121e+03
1.672947e+03,3.440450e+03
1.684517e+03,3.398089e+03
1.696088e+03,3.349708e+03
1.707659e+03,3.298423e+03
1.719230e+03,3.286588e+03
1.730801e+03,3.252290e+03
1.742371e+03,3.234605e+03
1.753942e+03,3.208854e+03
1.765513e+03,3.170073e+03
1.777084e+03,3.145304e+03
1.788655e+03,3.106375e+03
1.800225e+03,3.095286e+03
1.811796e+03,3.056333e+03
1.823367e+03,3.033375e+03
1.834938e+03,2.985811e+03
1.846509e+03,2.980435e+03
1.858079e+03,2.943910e+03
1.869650e+03,2.916578e+03
1.881221e+03,2.884458e+03
1.892792e+03,2.848595e+03
1.904363e+03,2.849081e+03
1.915933e+03,2.813340e+03
1.927504e+03,2.787183e+03
1.939075e+03,2.745226e+03
1.950646e+03,2.710131e+03
1.962217e+03,2.696531e+03
1.973787e+03,2.662352e+03
1.985358e+03,2.643960e+03
1.996929e+03,2.610201e+03
2.008500e+03,2.577511e+03
2.020071e+03,2.541097e+03
2.031641e+03,2.505573e+03
2.043212e+03,2.483811e+03
2.054783e+03,2.456390e+03
2.066354e+03,2.450488e+03
2.077925e+03,2.388038e+03
2.089496e+03,2.382352e+03
2.101066e+03,2.327097e+03
2.112637e+03,2.320485e+03
2.124208e+03,2.289282e+03
2.135779e+03,2.258585e+03
2.147350e+03,2.214182e+03
2.158920e+03,2.209434e+03
2.170491e+03,2.173913e+03
2.182062e+03,2.156332e+03
2.193633e+03,2.111301e+03
2.205204e+03,2.083422e+03
2.216774e+03,2.072312e+03
2.228345e+03,2.032719e+03
2.239916e+03,2.021470e+03
2.251487e+03,1.986792e+03
2.263058e+03,1.962582e+03
2.274628e+03,1.916892e+03
2.286199e+03,1.894214e+03
2.297770e+03,1.899951e+03
2.309341e+03,1.861719e+03
2.320912e+03,1.840331e+03
2.332482e+03,1.804573e+03
2.344053e+03,1.797956e+03
2.355624e+03,1.764844e+03
2.367195e+03,1.743410e+03
2.378766e+03,1.713360e+03
2.390336e+03,1.707531e+03
2.401907e+03,1.657593e+03
2.413478e+03,1.647176e+03
2.425049e+03,1.637875e+03
2.436620e+03,1.617284e+03
2.448190e+03,1.584966e+03
2.459761e+03,1.576343e+03
2.471332e+03,1.555810e+03
2.482903e+03,1.526570e+03
2.494474e+03,1.511694e+03
2.506044e+03,1.501568e+03
2.517615e+03,1.479974e+03
2.529186e+03,1.474238e+03
2.540757e+03,1.438193e+03
2.552328e+03,1.423652e+03
2.563898e+03,1.418443e+03
2.575469e+03,1.409107e+03
2.587040e+03,1.372781e+03
2.598611e+03,1.370161e+03
2.610182e+03,1.352497e+03
2.621752e+03,1.340724e+03
2.633323e+03,1.317857e+03
2.644894e+03,1.298440e+03
2.656465e+03,1.290007e+03
2.668036e+03,1.286989e+03
2.679606e+03,1.249542e+03
2.691177e+03,1.240808e+03
2.702748e+03,1.243301e+03
2.714319e+03,1.222495e+03
2.725890e+03,1.195162e+03
2.737460e+03,1.204431e+03
2.749031e+03,1.222454e+03
2.760602e+03,1.187017e+03
2.772173e+03,1.151343e+03
2.783744e+03,1.126794e+03
2.795314e+03,1.145623e+03
2.806885e+03,1.138158e+03
2.818456e+03,1.113192e+03
2.830027e+03,1.114090e+03
2.841598e+03,1.101082e+03
2.853168e+03,1.096124e+03
2.864739e+03,1.087829e+03
2.876310e+03,1.077599e+03
2.887881e+03,1.084061e+03
2.899452e+03,1.089261e+03
2.911022e+03,1.081786e+03
2.922593e+03,1.023931e+03
2.934164e+03,1.049841e+03
2.945735e+03,1.037407e+03
2.957306e+03,1.018235e+03
2.968876e+03,1.020159e+03
2.980447e+03,1.015937e+03
2.992018e+03,9.633947e+02
3.003589e+03,9.704694e+02
3.015160e+03,9.618103e+02
3.026730e+03,9.737098e+02
3.038301e+03,9.646293e+02
3.049872e+03,9.426283e+02
3.061443e+03,9.583452e+02
3.073014e+03,9.772156e+02
3.084584e+03,9.157462e+02
3.096155e+03,9.808359e+02
3.107726e+03,9.361337e+02
3.119297e+03,9.511506e+02
3.130868e+03,9.526588e+02
3.142438e+03,9.239124e+02
3.154009e+03,9.522712e+02
3.165580e+03,9.358782e+02
3.177151e+03,9.148553e+02
3.188722e+03,9.474706e+02
3.200292e+03,9.720027e+02
3.211863e+03,0.000000e+00
3.223434e+03,0.000000e+00
3.235005e+03,0.000000e+00
3.246576e+03,0.000000e+00
3.258146e+03,0.000000e+00
3.269717e+03,0.000000e+00
3.281288e+03,0.000000e+00
3.292859e+03,0.000000e+00
3.304430e+03,0.000000e+00
3.316000e+03,0.000000e+00
3.327571e+03,0.000000e+00
3.339142e+03,0.000000e+00
3.350713e+03,0.000000e+00
3.362284e+03,0.000000e+00
3.373854e+03,0.000000e+00
3.385425e+03,0.000000e+00
3.396996e+03,0.000000e+00
3.408567e+03,0.000000e+00
3.420138e+03,0.000000e+00
3.431708e+03,0.000000e+00
3.443279e+03,0.000000e+00
3.454850e+03,0.000000e+00
3.466421e+03,0.000000e+00
3.477992e+03,0.000000e+00
3.489563e+03,0.000000e+00
3.500169e+03,0.000000e+00