Folder: Taff_Bargoed_microplastics_data/RAMAN_data/20012023_r1 (part 2)

File: black fibre4.CSV
1.995979e+02,4.914709e+03
2.102045e+02,4.954185e+03
2.208110e+02,4.970411e+03
2.314176e+02,4.972445e+03
2.420242e+02,4.980158e+03
2.526307e+02,5.025577e+03
2.632373e+02,5.025727e+03
2.738439e+02,5.057969e+03
2.844504e+02,5.077341e+03
2.950570e+02,5.060807e+03
3.056636e+02,5.077100e+03
3.162701e+02,5.072384e+03
3.268767e+02,5.102097e+03
3.374833e+02,5.086612e+03
3.480898e+02,5.099117e+03
3.586964e+02,5.116252e+03
3.693030e+02,5.091833e+03
3.799095e+02,5.123472e+03
3.905161e+02,5.114847e+03
4.011227e+02,5.079506e+03
4.117292e+02,5.085101e+03
4.223358e+02,5.082142e+03
4.329424e+02,5.081195e+03
4.435490e+02,5.075309e+03
4.541555e+02,5.057563e+03
4.647621e+02,5.041313e+03
4.753687e+02,5.039967e+03
4.859752e+02,5.067361e+03
4.965818e+02,5.036128e+03
5.071884e+02,5.012666e+03
5.177949e+02,5.011771e+03
5.284015e+02,4.980763e+03
5.390081e+02,4.964329e+03
5.496146e+02,4.954577e+03
5.602212e+02,4.950761e+03
5.708278e+02,4.878654e+03
5.814343e+02,4.913117e+03
5.920409e+02,4.886187e+03
6.026475e+02,4.863306e+03
6.132540e+02,4.862497e+03
6.238606e+02,4.836947e+03
6.344672e+02,4.803827e+03
6.450737e+02,4.781447e+03
6.556803e+02,4.779571e+03
6.662869e+02,4.759643e+03
6.768934e+02,4.721117e+03
6.875000e+02,4.694805e+03
6.981066e+02,4.688659e+03
7.087131e+02,4.666864e+03
7.193197e+02,4.655978e+03
7.299263e+02,4.607273e+03
7.405328e+02,4.587345e+03
7.511394e+02,4.573582e+03
7.617460e+02,4.541388e+03
7.723525e+02,4.516125e+03
7.829591e+02,4.499435e+03
7.935657e+02,4.469026e+03
8.041722e+02,4.455617e+03
8.147788e+02,4.442825e+03
8.253854e+02,4.421982e+03
8.359919e+02,4.402680e+03
8.465985e+02,4.362988e+03
8.572051e+02,4.353291e+03
8.678116e+02,4.319014e+03
8.784182e+02,4.311478e+03
8.890248e+02,4.294312e+03
8.996313e+02,4.248977e+03
9.102379e+02,4.262709e+03
9.208445e+02,4.204430e+03
9.314510e+02,4.179850e+03
9.420576e+02,4.168923e+03
9.526642e+02,4.135376e+03
9.632708e+02,4.118794e+03
9.738773e+02,4.090571e+03
9.844839e+02,4.068306e+03
9.950905e+02,4.048815e+03
1.005697e+03,4.028137e+03
1.016304e+03,3.991989e+03
1.026910e+03,3.973631e+03
1.037517e+03,3.966093e+03
1.048123e+03,3.921816e+03
1.058730e+03,3.909533e+03
1.069336e+03,3.906313e+03
1.079943e+03,3.879003e+03
1.090550e+03,3.913623e+03
1.101156e+03,3.870459e+03
1.111763e+03,3.873188e+03
1.122369e+03,3.854105e+03
1.132976e+03,3.845281e+03
1.143582e+03,3.821731e+03
1.154189e+03,3.823724e+03
1.164796e+03,3.764333e+03
1.175402e+03,3.731866e+03
1.186009e+03,3.717647e+03
1.196615e+03,3.707856e+03
1.207222e+03,3.682664e+03
1.217828e+03,3.682694e+03
1.228435e+03,3.653735e+03
1.239042e+03,3.642599e+03
1.249648e+03,3.601264e+03
1.260255e+03,3.584800e+03
1.270861e+03,3.604571e+03
1.281468e+03,3.617278e+03
1.292074e+03,3.568815e+03
1.302681e+03,3.535872e+03
1.313287e+03,3.513913e+03
1.323894e+03,3.520908e+03
1.334501e+03,3.530341e+03
1.345107e+03,3.500630e+03
1.355714e+03,3.472487e+03
1.366320e+03,3.462893e+03
1.376927e+03,3.412967e+03
1.387533e+03,3.395093e+03
1.398140e+03,3.378361e+03
1.408747e+03,3.350685e+03
1.419353e+03,3.328738e+03
1.429960e+03,3.317080e+03
1.440566e+03,3.264193e+03
1.451173e+03,3.261780e+03
1.461779e+03,3.261892e+03
1.472386e+03,3.222141e+03
1.482993e+03,3.212045e+03
1.493599e+03,3.207783e+03
1.504206e+03,3.181129e+03
1.514812e+03,3.161787e+03
1.525419e+03,3.157834e+03
1.536025e+03,3.129876e+03
1.546632e+03,3.114779e+03
1.557239e+03,3.094899e+03
1.567845e+03,3.124000e+03
1.578452e+03,3.108491e+03
1.589058e+03,3.081575e+03
1.599665e+03,3.047658e+03
1.610271e+03,3.008652e+03
1.620878e+03,2.976563e+03
1.631484e+03,2.952122e+03
1.642091e+03,2.942177e+03
1.652698e+03,2.922879e+03
1.663304e+03,2.878565e+03
1.673911e+03,2.897580e+03
1.684517e+03,2.845296e+03
1.695124e+03,2.844957e+03
1.705730e+03,2.835763e+03
1.716337e+03,2.788702e+03
1.726944e+03,2.777173e+03
1.737550e+03,2.772778e+03
1.748157e+03,2.717091e+03
1.758763e+03,2.716116e+03
1.769370e+03,2.701779e+03
1.779976e+03,2.681708e+03
1.790583e+03,2.642064e+03
1.801190e+03,2.637816e+03
1.811796e+03,2.631417e+03
1.822403e+03,2.592040e+03
1.833009e+03,2.573829e+03
1.843616e+03,2.572626e+03
1.854222e+03,2.532626e+03
1.864829e+03,2.513015e+03
1.875436e+03,2.508503e+03
1.886042e+03,2.483251e+03
1.896649e+03,2.464202e+03
1.907255e+03,2.462598e+03
1.917862e+03,2.377258e+03
1.928468e+03,2.377950e+03
1.939075e+03,2.355916e+03
1.949682e+03,2.348435e+03
1.960288e+03,2.332190e+03
1.970895e+03,2.307384e+03
1.981501e+03,2.285860e+03
1.992108e+03,2.256011e+03
2.002714e+03,2.237247e+03
2.013321e+03,2.239077e+03
2.023927e+03,2.200956e+03
2.034534e+03,2.186480e+03
2.045141e+03,2.171116e+03
2.055747e+03,2.139917e+03
2.066354e+03,2.122098e+03
2.076960e+03,2.115156e+03
2.087567e+03,2.067428e+03
2.098173e+03,2.064379e+03
2.108780e+03,2.048835e+03
2.119387e+03,2.012888e+03
2.129993e+03,2.000527e+03
2.140600e+03,1.979419e+03
2.151206e+03,1.967563e+03
2.161813e+03,1.947675e+03
2.172419e+03,1.923903e+03
2.183026e+03,1.900758e+03
2.193633e+03,1.883193e+03
2.204239e+03,1.858643e+03
2.214846e+03,1.856172e+03
2.225452e+03,1.803453e+03
2.236059e+03,1.787516e+03
2.246666e+03,1.774982e+03
2.257272e+03,1.747163e+03
2.267879e+03,1.740344e+03
2.278485e+03,1.729244e+03
2.289092e+03,1.693957e+03
2.299698e+03,1.691160e+03
2.310305e+03,1.690385e+03
2.320911e+03,1.649421e+03
2.331518e+03,1.639775e+03
2.342125e+03,1.617238e+03
2.352731e+03,1.596036e+03
2.363338e+03,1.585995e+03
2.373944e+03,1.567466e+03
2.384551e+03,1.557200e+03
2.395157e+03,1.528081e+03
2.405764e+03,1.529115e+03
2.416370e+03,1.516267e+03
2.426977e+03,1.491429e+03
2.437584e+03,1.469616e+03
2.448190e+03,1.480575e+03
2.458797e+03,1.452853e+03
2.469403e+03,1.424622e+03
2.480010e+03,1.414882e+03
2.490616e+03,1.414196e+03
2.501223e+03,1.403450e+03
2.511830e+03,1.393924e+03
2.522436e+03,1.374593e+03
2.533043e+03,1.381651e+03
2.543649e+03,1.353143e+03
2.554256e+03,1.358055e+03
2.564863e+03,1.330916e+03
2.575469e+03,1.339118e+03
2.586075e+03,1.302594e+03
2.596682e+03,1.297240e+03
2.607289e+03,1.265063e+03
2.617895e+03,1.274409e+03
2.628502e+03,1.251216e+03
2.639108e+03,1.240495e+03
2.649715e+03,1.222657e+03
2.660322e+03,1.219244e+03
2.670928e+03,1.236633e+03
2.681535e+03,1.196491e+03
2.692141e+03,1.205916e+03
2.702748e+03,1.187217e+03
2.713354e+03,1.180958e+03
2.723961e+03,1.183609e+03
2.734568e+03,1.164287e+03
2.745174e+03,1.144208e+03
2.755781e+03,1.142373e+03
2.766387e+03,1.136590e+03
2.776994e+03,1.122476e+03
2.787600e+03,1.113226e+03
2.798207e+03,1.110658e+03
2.808813e+03,1.091703e+03
2.819420e+03,1.088043e+03
2.830027e+03,1.079881e+03
2.840633e+03,1.085004e+03
2.851240e+03,1.066857e+03
2.861846e+03,1.071205e+03
2.872453e+03,1.062715e+03
2.883059e+03,1.069308e+03
2.893666e+03,1.071348e+03
2.904273e+03,1.065583e+03
2.914879e+03,1.072860e+03
2.925486e+03,1.037679e+03
2.936092e+03,1.044557e+03
2.946699e+03,1.041292e+03
2.957305e+03,1.048696e+03
2.967912e+03,9.864536e+02
2.978519e+03,1.000024e+03
2.989125e+03,9.747617e+02
2.999732e+03,9.440720e+02
3.010338e+03,9.725094e+02
3.020945e+03,9.821390e+02
3.031552e+03,9.628790e+02
3.042158e+03,9.938834e+02
3.052764e+03,9.567217e+02
3.063371e+03,9.769922e+02
3.073978e+03,9.687458e+02
3.084584e+03,9.617720e+02
3.095191e+03,9.492971e+02
3.105797e+03,9.307222e+02
3.116404e+03,9.654186e+02
3.127010e+03,9.448340e+02
3.137617e+03,9.373488e+02
3.148224e+03,9.557198e+02
3.158830e+03,9.384603e+02
3.169437e+03,9.408317e+02
3.180043e+03,9.074738e+02
3.190650e+03,9.827880e+02
3.200292e+03,9.993770e+02

File: black fibre5.CSV
1.995979e+02,3.575572e+03
2.102045e+02,3.594443e+03
2.208110e+02,3.605113e+03
2.314176e+02,3.636583e+03
2.420242e+02,3.628860e+03
2.526307e+02,3.647469e+03
2.632373e+02,3.670182e+03
2.738439e+02,3.676448e+03
2.844504e+02,3.684475e+03
2.950570e+02,3.681314e+03
3.056636e+02,3.714521e+03
3.162701e+02,3.719924e+03
3.268767e+02,3.719566e+03
3.374833e+02,3.727715e+03
3.480898e+02,3.743685e+03
3.586964e+02,3.730408e+03
3.693030e+02,3.737697e+03
3.799095e+02,3.762723e+03
3.905161e+02,3.729901e+03
4.011227e+02,3.733439e+03
4.117292e+02,3.720969e+03
4.223358e+02,3.719786e+03
4.329424e+02,3.726405e+03
4.435490e+02,3.714463e+03
4.541555e+02,3.708089e+03
4.647621e+02,3.707214e+03
4.753687e+02,3.698414e+03
4.859752e+02,3.755802e+03
4.965818e+02,3.699336e+03
5.071884e+02,3.682287e+03
5.177949e+02,3.660126e+03
5.284015e+02,3.657034e+03
5.390081e+02,3.628234e+03
5.496146e+02,3.647529e+03
5.602212e+02,3.612364e+03
5.708278e+02,3.599402e+03
5.814343e+02,3.604762e+03
5.920409e+02,3.582114e+03
6.026475e+02,3.581139e+03
6.132540e+02,3.568403e+03
6.238606e+02,3.544439e+03
6.344672e+02,3.536047e+03
6.450737e+02,3.543093e+03
6.556803e+02,3.520445e+03
6.662869e+02,3.494745e+03
6.768934e+02,3.489903e+03
6.875000e+02,3.463839e+03
6.981066e+02,3.451356e+03
7.087131e+02,3.423906e+03
7.193197e+02,3.427437e+03
7.299263e+02,3.403993e+03
7.405328e+02,3.388236e+03
7.511394e+02,3.371723e+03
7.617460e+02,3.358278e+03
7.723525e+02,3.320908e+03
7.829591e+02,3.316588e+03
7.935657e+02,3.308590e+03
8.041722e+02,3.277919e+03
8.147788e+02,3.277651e+03
8.253854e+02,3.264022e+03
8.359919e+02,3.259220e+03
8.465985e+02,3.228904e+03
8.572051e+02,3.197940e+03
8.678116e+02,3.194624e+03
8.784182e+02,3.172712e+03
8.890248e+02,3.177188e+03
8.996313e+02,3.140736e+03
9.102379e+02,3.125004e+03
9.208445e+02,3.090729e+03
9.314510e+02,3.108753e+03
9.420576e+02,3.059806e+03
9.526642e+02,3.058563e+03
9.632708e+02,3.029512e+03
9.738773e+02,3.004792e+03
9.844839e+02,2.988888e+03
9.950905e+02,3.003562e+03
1.005697e+03,2.989129e+03
1.016304e+03,2.944130e+03
1.026910e+03,2.937703e+03
1.037517e+03,2.944776e+03
1.048123e+03,2.894926e+03
1.058730e+03,2.892955e+03
1.069336e+03,2.881728e+03
1.079943e+03,2.860715e+03
1.090550e+03,2.881137e+03
1.101156e+03,2.853012e+03
1.111763e+03,2.874468e+03
1.122369e+03,2.877421e+03
1.132976e+03,2.850038e+03
1.143582e+03,2.849491e+03
1.154189e+03,2.847944e+03
1.164796e+03,2.773677e+03
1.175402e+03,2.777261e+03
1.186009e+03,2.749679e+03
1.196615e+03,2.733073e+03
1.207222e+03,2.723950e+03
1.217828e+03,2.708453e+03
1.228435e+03,2.705306e+03
1.239042e+03,2.672218e+03
1.249648e+03,2.650744e+03
1.260255e+03,2.664558e+03
1.270861e+03,2.655878e+03
1.281468e+03,2.671157e+03
1.292074e+03,2.649514e+03
1.302681e+03,2.614442e+03
1.313287e+03,2.589479e+03
1.323894e+03,2.598765e+03
1.334501e+03,2.616843e+03
1.345107e+03,2.593035e+03
1.355714e+03,2.570677e+03
1.366320e+03,2.564406e+03
1.376927e+03,2.525677e+03
1.387533e+03,2.503654e+03
1.398140e+03,2.502761e+03
1.408747e+03,2.479341e+03
1.419353e+03,2.452032e+03
1.429960e+03,2.454897e+03
1.440566e+03,2.419976e+03
1.451173e+03,2.400164e+03
1.461779e+03,2.379949e+03
1.472386e+03,2.369495e+03
1.482993e+03,2.364819e+03
1.493599e+03,2.354872e+03
1.504206e+03,2.333982e+03
1.514812e+03,2.316678e+03
1.525419e+03,2.311882e+03
1.536025e+03,2.283772e+03
1.546632e+03,2.275445e+03
1.557239e+03,2.288168e+03
1.567845e+03,2.299944e+03
1.578452e+03,2.301544e+03
1.589058e+03,2.285001e+03
1.599665e+03,2.261597e+03
1.610271e+03,2.228293e+03
1.620878e+03,2.200437e+03
1.631484e+03,2.166731e+03
1.642091e+03,2.160835e+03
1.652698e+03,2.146749e+03
1.663304e+03,2.125989e+03
1.673911e+03,2.117107e+03
1.684517e+03,2.095449e+03
1.695124e+03,2.069661e+03
1.705730e+03,2.078399e+03
1.716337e+03,2.050649e+03
1.726944e+03,2.044305e+03
1.737550e+03,2.040583e+03
1.748157e+03,2.024439e+03
1.758763e+03,2.008057e+03
1.769370e+03,1.985198e+03
1.779976e+03,1.974432e+03
1.790583e+03,1.948853e+03
1.801190e+03,1.945519e+03
1.811796e+03,1.934476e+03
1.822403e+03,1.918751e+03
1.833009e+03,1.904076e+03
1.843616e+03,1.895009e+03
1.854222e+03,1.858115e+03
1.864829e+03,1.856165e+03
1.875436e+03,1.856580e+03
1.886042e+03,1.825961e+03
1.896649e+03,1.815004e+03
1.907255e+03,1.805707e+03
1.917862e+03,1.774155e+03
1.928468e+03,1.760754e+03
1.939075e+03,1.751424e+03
1.949682e+03,1.750378e+03
1.960288e+03,1.732326e+03
1.970895e+03,1.721223e+03
1.981501e+03,1.697298e+03
1.992108e+03,1.673491e+03
2.002714e+03,1.670650e+03
2.013321e+03,1.647349e+03
2.023927e+03,1.638609e+03
2.034534e+03,1.618360e+03
2.045141e+03,1.600651e+03
2.055747e+03,1.599623e+03
2.066354e+03,1.585867e+03
2.076960e+03,1.566057e+03
2.087567e+03,1.545625e+03
2.098173e+03,1.538734e+03
2.108780e+03,1.523798e+03
2.119387e+03,1.489475e+03
2.129993e+03,1.484859e+03
2.140600e+03,1.469226e+03
2.151206e+03,1.459127e+03
2.161813e+03,1.458689e+03
2.172419e+03,1.436086e+03
2.183026e+03,1.419507e+03
2.193633e+03,1.394650e+03
2.204239e+03,1.394773e+03
2.214846e+03,1.373775e+03
2.225452e+03,1.351157e+03
2.236059e+03,1.364588e+03
2.246666e+03,1.335021e+03
2.257272e+03,1.328148e+03
2.267879e+03,1.314385e+03
2.278485e+03,1.298949e+03
2.289092e+03,1.268058e+03
2.299698e+03,1.276259e+03
2.310305e+03,1.269234e+03
2.320911e+03,1.224012e+03
2.331518e+03,1.230001e+03
2.342125e+03,1.215858e+03
2.352731e+03,1.198514e+03
2.363338e+03,1.204035e+03
2.373944e+03,1.172147e+03
2.384551e+03,1.172341e+03
2.395157e+03,1.152401e+03
2.405764e+03,1.162006e+03
2.416370e+03,1.120992e+03
2.426977e+03,1.116277e+03
2.437584e+03,1.103426e+03
2.448190e+03,1.109054e+03
2.458797e+03,1.085797e+03
2.469403e+03,1.082176e+03
2.480010e+03,1.070475e+03
2.490616e+03,1.062023e+03
2.501223e+03,1.053628e+03
2.511830e+03,1.054370e+03
2.522436e+03,1.027309e+03
2.533043e+03,1.018325e+03
2.543649e+03,1.017824e+03
2.554256e+03,1.023927e+03
2.564863e+03,1.001615e+03
2.575469e+03,9.871125e+02
2.586075e+03,9.946619e+02
2.596682e+03,9.651381e+02
2.607289e+03,9.549869e+02
2.617895e+03,9.590527e+02
2.628502e+03,9.458829e+02
2.639108e+03,9.571053e+02
2.649715e+03,9.418449e+02
2.660322e+03,9.114308e+02
2.670928e+03,9.306342e+02
2.681535e+03,9.101988e+02
2.692141e+03,9.089190e+02
2.702748e+03,9.159159e+02
2.713354e+03,8.872386e+02
2.723961e+03,8.826758e+02
2.734568e+03,9.015162e+02
2.745174e+03,8.775696e+02
2.755781e+03,8.646889e+02
2.766387e+03,8.427516e+02
2.776994e+03,8.431930e+02
2.787600e+03,8.469420e+02
2.798207e+03,8.566822e+02
2.808813e+03,8.244997e+02
2.819420e+03,8.075406e+02
2.830027e+03,8.270128e+02
2.840633e+03,8.013998e+02
2.851240e+03,8.204817e+02
2.861846e+03,8.336265e+02
2.872453e+03,8.032925e+02
2.883059e+03,8.159257e+02
2.893666e+03,8.405837e+02
2.904273e+03,8.362550e+02
2.914879e+03,8.230448e+02
2.925486e+03,8.024006e+02
2.936092e+03,7.934612e+02
2.946699e+03,7.700623e+02
2.957305e+03,8.377178e+02
2.967912e+03,7.829070e+02
2.978519e+03,7.633023e+02
2.989125e+03,7.533487e+02
2.999732e+03,7.282231e+02
3.010338e+03,7.361819e+02
3.020945e+03,7.336223e+02
3.031552e+03,7.183290e+02
3.042158e+03,7.298630e+02
3.052764e+03,7.203392e+02
3.063371e+03,7.324290e+02
3.073978e+03,7.038053e+02
3.084584e+03,7.278642e+02
3.095191e+03,7.108366e+02
3.105797e+03,6.826981e+02
3.116404e+03,7.128556e+02
3.127010e+03,7.166846e+02
3.137617e+03,7.312058e+02
3.148224e+03,7.096143e+02
3.158830e+03,7.023656e+02
3.169437e+03,7.124440e+02
3.180043e+03,6.860803e+02
3.190650e+03,7.401404e+02
3.200292e+03,7.415574e+02

File: black fibre6.CSV
1.995979e+02,2.764760e+03
2.102045e+02,2.770641e+03
2.208110e+02,2.778730e+03
2.314176e+02,2.770461e+03
2.420242e+02,2.749741e+03
2.526307e+02,2.780843e+03
2.632373e+02,2.784261e+03
2.738439e+02,2.790315e+03
2.844504e+02,2.763648e+03
2.950570e+02,2.782523e+03
3.056636e+02,2.790841e+03
3.162701e+02,2.795949e+03
3.268767e+02,2.804540e+03
3.374833e+02,2.797258e+03
3.480898e+02,2.790478e+03
3.586964e+02,2.779220e+03
3.693030e+02,2.782343e+03
3.799095e+02,2.816920e+03
3.905161e+02,2.767275e+03
4.011227e+02,2.750684e+03
4.117292e+02,2.750164e+03
4.223358e+02,2.758753e+03
4.329424e+02,2.761769e+03
4.435490e+02,2.746612e+03
4.541555e+02,2.748552e+03
4.647621e+02,2.719622e+03
4.753687e+02,2.692193e+03
4.859752e+02,2.689070e+03
4.965818e+02,2.683018e+03
5.071884e+02,2.660183e+03
5.177949e+02,2.694031e+03
5.284015e+02,2.649785e+03
5.390081e+02,2.650165e+03
5.496146e+02,2.649232e+03
5.602212e+02,2.641167e+03
5.708278e+02,2.619321e+03
5.814343e+02,2.612886e+03
5.920409e+02,2.581857e+03
6.026475e+02,2.591484e+03
6.132540e+02,2.581038e+03
6.238606e+02,2.560211e+03
6.344672e+02,2.547035e+03
6.450737e+02,2.540573e+03
6.556803e+02,2.542089e+03
6.662869e+02,2.526170e+03
6.768934e+02,2.501858e+03
6.875000e+02,2.492569e+03
6.981066e+02,2.480015e+03
7.087131e+02,2.458417e+03
7.193197e+02,2.450835e+03
7.299263e+02,2.449014e+03
7.405328e+02,2.418032e+03
7.511394e+02,2.418258e+03
7.617460e+02,2.417708e+03
7.723525e+02,2.397201e+03
7.829591e+02,2.378322e+03
7.935657e+02,2.367578e+03
8.041722e+02,2.334509e+03
8.147788e+02,2.322526e+03
8.253854e+02,2.334304e+03
8.359919e+02,2.320977e+03
8.465985e+02,2.295993e+03
8.572051e+02,2.302908e+03
8.678116e+02,2.279755e+03
8.784182e+02,2.274390e+03
8.890248e+02,2.277378e+03
8.996313e+02,2.243716e+03
9.102379e+02,2.210271e+03
9.208445e+02,2.184501e+03
9.314510e+02,2.173850e+03
9.420576e+02,2.157247e+03
9.526642e+02,2.145460e+03
9.632708e+02,2.131161e+03
9.738773e+02,2.135091e+03
9.844839e+02,2.114750e+03
9.950905e+02,2.126451e+03
1.005697e+03,2.092812e+03
1.016304e+03,2.063078e+03
1.026910e+03,2.070174e+03
1.037517e+03,2.052226e+03
1.048123e+03,2.040832e+03
1.058730e+03,2.054754e+03
1.069336e+03,2.050031e+03
1.079943e+03,2.037164e+03
1.090550e+03,2.068702e+03
1.101156e+03,2.038131e+03
1.111763e+03,2.035141e+03
1.122369e+03,2.026971e+03
1.132976e+03,2.017862e+03
1.143582e+03,1.980172e+03
1.154189e+03,1.991882e+03
1.164796e+03,1.979681e+03
1.175402e+03,1.935409e+03
1.186009e+03,1.927887e+03
1.196615e+03,1.930275e+03
1.207222e+03,1.920120e+03
1.217828e+03,1.903030e+03
1.228435e+03,1.896947e+03
1.239042e+03,1.869220e+03
1.249648e+03,1.860588e+03
1.260255e+03,1.847077e+03
1.270861e+03,1.851878e+03
1.281468e+03,1.869043e+03
1.292074e+03,1.855105e+03
1.302681e+03,1.854770e+03
1.313287e+03,1.864465e+03
1.323894e+03,1.880298e+03
1.334501e+03,1.861542e+03
1.345107e+03,1.829818e+03
1.355714e+03,1.786080e+03
1.366320e+03,1.782228e+03
1.376927e+03,1.762179e+03
1.387533e+03,1.749756e+03
1.398140e+03,1.724873e+03
1.408747e+03,1.713018e+03
1.419353e+03,1.722106e+03
1.429960e+03,1.717719e+03
1.440566e+03,1.693193e+03
1.451173e+03,1.688294e+03
1.461779e+03,1.675085e+03
1.472386e+03,1.648786e+03
1.482993e+03,1.647649e+03
1.493599e+03,1.628536e+03
1.504206e+03,1.610254e+03
1.514812e+03,1.584040e+03
1.525419e+03,1.590803e+03
1.536025e+03,1.597037e+03
1.546632e+03,1.598334e+03
1.557239e+03,1.593538e+03
1.567845e+03,1.590476e+03
1.578452e+03,1.583192e+03
1.589058e+03,1.564250e+03
1.599665e+03,1.564238e+03
1.610271e+03,1.628625e+03
1.620878e+03,1.535631e+03
1.631484e+03,1.503061e+03
1.642091e+03,1.488718e+03
1.652698e+03,1.476026e+03
1.663304e+03,1.482965e+03
1.673911e+03,1.459342e+03
1.684517e+03,1.453329e+03
1.695124e+03,1.436793e+03
1.705730e+03,1.431983e+03
1.716337e+03,1.423757e+03
1.726944e+03,1.445883e+03
1.737550e+03,1.405060e+03
1.748157e+03,1.391165e+03
1.758763e+03,1.376417e+03
1.769370e+03,1.368978e+03
1.779976e+03,1.359323e+03
1.790583e+03,1.361667e+03
1.801190e+03,1.331210e+03
1.811796e+03,1.316293e+03
1.822403e+03,1.295107e+03
1.833009e+03,1.304886e+03
1.843616e+03,1.285285e+03
1.854222e+03,1.267600e+03
1.864829e+03,1.244362e+03
1.875436e+03,1.235441e+03
1.886042e+03,1.248095e+03
1.896649e+03,1.230996e+03
1.907255e+03,1.219073e+03
1.917862e+03,1.196718e+03
1.928468e+03,1.195650e+03
1.939075e+03,1.176151e+03
1.949682e+03,1.170131e+03
1.960288e+03,1.151035e+03
1.970895e+03,1.149188e+03
1.981501e+03,1.142467e+03
1.992108e+03,1.127247e+03
2.002714e+03,1.122700e+03
2.013321e+03,1.107772e+03
2.023927e+03,1.109017e+03
2.034534e+03,1.085777e+03
2.045141e+03,1.091381e+03
2.055747e+03,1.060285e+03
2.066354e+03,1.052726e+03
2.076960e+03,1.036790e+03
2.087567e+03,1.019287e+03
2.098173e+03,1.023558e+03
2.108780e+03,1.007831e+03
2.119387e+03,9.921686e+02
2.129993e+03,9.884684e+02
2.140600e+03,9.908336e+02
2.151206e+03,9.552845e+02
2.161813e+03,9.563422e+02
2.172419e+03,9.465266e+02
2.183026e+03,9.359991e+02
2.193633e+03,9.120604e+02
2.204239e+03,9.196583e+02
2.214846e+03,9.032151e+02
2.225452e+03,8.864810e+02
2.236059e+03,8.843718e+02
2.246666e+03,8.757244e+02
2.257272e+03,8.709539e+02
2.267879e+03,8.469201e+02
2.278485e+03,8.352757e+02
2.289092e+03,8.330357e+02
2.299698e+03,8.315011e+02
2.310305e+03,8.271736e+02
2.320911e+03,7.992200e+02
2.331518e+03,7.994735e+02
2.342125e+03,7.833644e+02
2.352731e+03,7.863863e+02
2.363338e+03,7.765531e+02
2.373944e+03,7.579915e+02
2.384551e+03,7.559973e+02
2.395157e+03,7.460092e+02
2.405764e+03,7.440807e+02
2.416370e+03,7.371437e+02
2.426977e+03,7.278837e+02
2.437584e+03,7.255583e+02
2.448190e+03,7.021391e+02
2.458797e+03,7.070115e+02
2.469403e+03,6.934960e+02
2.480010e+03,7.066135e+02
2.490616e+03,6.912042e+02
2.501223e+03,6.860250e+02
2.511830e+03,6.686368e+02
2.522436e+03,6.705163e+02
2.533043e+03,6.633796e+02
2.543649e+03,6.514568e+02
2.554256e+03,6.663453e+02
2.564863e+03,6.600311e+02
2.575469e+03,6.422598e+02
2.586075e+03,6.435350e+02
2.596682e+03,6.406663e+02
2.607289e+03,6.047422e+02
2.617895e+03,6.087582e+02
2.628502e+03,6.076234e+02
2.639108e+03,6.065479e+02
2.649715e+03,6.097266e+02
2.660322e+03,5.941070e+02
2.670928e+03,5.825906e+02
2.681535e+03,5.847645e+02
2.692141e+03,5.828600e+02
2.702748e+03,5.730085e+02
2.713354e+03,5.871786e+02
2.723961e+03,5.729984e+02
2.734568e+03,5.757227e+02
2.745174e+03,5.730256e+02
2.755781e+03,5.534857e+02
2.766387e+03,5.254650e+02
2.776994e+03,5.515348e+02
2.787600e+03,5.429077e+02
2.798207e+03,5.561774e+02
2.808813e+03,5.467131e+02
2.819420e+03,5.449421e+02
2.830027e+03,5.581080e+02
2.840633e+03,5.318514e+02
2.851240e+03,5.424949e+02
2.861846e+03,5.445485e+02
2.872453e+03,5.296981e+02
2.883059e+03,5.503802e+02
2.893666e+03,5.627765e+02
2.904273e+03,5.546684e+02
2.914879e+03,5.386282e+02
2.925486e+03,5.302847e+02
2.936092e+03,5.342711e+02
2.946699e+03,5.419945e+02
2.957305e+03,5.757868e+02
2.967912e+03,5.074672e+02
2.978519e+03,5.026320e+02
2.989125e+03,4.979564e+02
2.999732e+03,4.711240e+02
3.010338e+03,4.876754e+02
3.020945e+03,5.001299e+02
3.031552e+03,4.635726e+02
3.042158e+03,4.870587e+02
3.052764e+03,4.988732e+02
3.063371e+03,4.996830e+02
3.073978e+03,4.853854e+02
3.084584e+03,4.929727e+02
3.095191e+03,4.797828e+02
3.105797e+03,4.650023e+02
3.116404e+03,4.925594e+02
3.127010e+03,4.577008e+02
3.137617e+03,4.876749e+02
3.148224e+03,4.752718e+02
3.158830e+03,4.765327e+02
3.169437e+03,5.027124e+02
3.180043e+03,4.714065e+02
3.190650e+03,4.808848e+02
3.200292e+03,5.161293e+02