Folder: Taff_Bargoed_microplastics_data/RAMAN_data/20012023_r3 (part 9)

File: blue fibre14.CSV
9.931763e+01,0.000000e+00
1.108884e+02,0.000000e+00
1.224592e+02,0.000000e+00
1.340300e+02,0.000000e+00
1.456008e+02,0.000000e+00
1.571716e+02,0.000000e+00
1.687424e+02,0.000000e+00
1.803132e+02,0.000000e+00
1.918840e+02,0.000000e+00
2.034548e+02,8.745027e+03
2.150256e+02,8.867940e+03
2.265964e+02,8.976641e+03
2.381673e+02,9.145005e+03
2.497381e+02,9.337760e+03
2.613088e+02,9.435516e+03
2.728796e+02,9.626003e+03
2.844504e+02,9.859296e+03
2.960212e+02,9.817897e+03
3.075920e+02,9.922345e+03
3.191628e+02,1.000095e+04
3.307336e+02,1.014129e+04
3.423044e+02,1.024956e+04
3.538752e+02,1.031967e+04
3.654461e+02,1.039707e+04
3.770169e+02,1.055348e+04
3.885877e+02,1.060831e+04
4.001585e+02,1.067805e+04
4.117293e+02,1.073302e+04
4.233001e+02,1.078121e+04
4.348709e+02,1.087190e+04
4.464417e+02,1.087930e+04
4.580125e+02,1.095202e+04
4.695833e+02,1.102339e+04
4.811541e+02,1.103772e+04
4.927249e+02,1.106760e+04
5.042957e+02,1.113319e+04
5.158665e+02,1.122552e+04
5.274373e+02,1.121157e+04
5.390081e+02,1.129877e+04
5.505789e+02,1.143966e+04
5.621497e+02,1.155232e+04
5.737205e+02,1.133430e+04
5.852913e+02,1.129130e+04
5.968621e+02,1.138781e+04
6.084329e+02,1.144897e+04
6.200037e+02,1.132212e+04
6.315745e+02,1.134766e+04
6.431453e+02,1.129724e+04
6.547161e+02,1.129608e+04
6.662869e+02,1.127633e+04
6.778577e+02,1.123604e+04
6.894285e+02,1.121249e+04
7.009993e+02,1.114800e+04
7.125701e+02,1.112314e+04
7.241409e+02,1.109004e+04
7.357117e+02,1.102137e+04
7.472825e+02,1.100260e+04
7.588533e+02,1.097305e+04
7.704241e+02,1.091866e+04
7.819949e+02,1.092721e+04
7.935657e+02,1.089764e+04
8.051365e+02,1.078092e+04
8.167073e+02,1.069883e+04
8.282781e+02,1.065389e+04
8.398489e+02,1.060284e+04
8.514197e+02,1.052884e+04
8.629905e+02,1.043202e+04
8.745613e+02,1.036209e+04
8.861321e+02,1.036725e+04
8.977029e+02,1.025513e+04
9.092737e+02,1.020074e+04
9.208445e+02,1.012392e+04
9.324153e+02,1.007127e+04
9.439861e+02,9.994417e+03
9.555569e+02,9.924906e+03
9.671277e+02,9.822359e+03
9.786985e+02,9.784467e+03
9.902693e+02,9.655605e+03
1.001840e+03,9.613400e+03
1.013411e+03,9.559056e+03
1.024982e+03,9.477653e+03
1.036552e+03,9.399124e+03
1.048123e+03,9.344178e+03
1.059694e+03,9.315606e+03
1.071265e+03,9.307437e+03
1.082836e+03,9.255111e+03
1.094406e+03,9.152955e+03
1.105977e+03,9.052212e+03
1.117548e+03,8.989894e+03
1.129119e+03,8.918209e+03
1.140690e+03,8.847314e+03
1.152261e+03,8.783635e+03
1.163831e+03,8.713406e+03
1.175402e+03,8.603315e+03
1.186973e+03,8.587714e+03
1.198544e+03,8.548665e+03
1.210115e+03,8.450791e+03
1.221685e+03,8.412438e+03
1.233256e+03,8.332416e+03
1.244827e+03,8.318013e+03
1.256398e+03,8.223044e+03
1.267969e+03,8.114060e+03
1.279539e+03,8.063485e+03
1.291110e+03,8.020745e+03
1.302681e+03,7.957960e+03
1.314252e+03,7.919373e+03
1.325823e+03,7.833826e+03
1.337393e+03,7.841336e+03
1.348964e+03,7.763370e+03
1.360535e+03,7.732802e+03
1.372106e+03,7.673631e+03
1.383677e+03,7.598196e+03
1.395247e+03,7.565333e+03
1.406818e+03,7.485436e+03
1.418389e+03,7.423768e+03
1.429960e+03,7.406208e+03
1.441531e+03,7.335267e+03
1.453101e+03,7.354568e+03
1.464672e+03,7.312068e+03
1.476243e+03,7.222837e+03
1.487814e+03,7.190699e+03
1.499385e+03,7.128720e+03
1.510955e+03,7.144182e+03
1.522526e+03,7.067018e+03
1.534097e+03,6.973003e+03
1.545668e+03,6.908864e+03
1.557239e+03,6.925257e+03
1.568809e+03,7.077541e+03
1.580380e+03,7.025786e+03
1.591951e+03,6.818313e+03
1.603522e+03,6.738742e+03
1.615093e+03,6.689828e+03
1.626663e+03,6.660149e+03
1.638234e+03,6.595329e+03
1.649805e+03,6.507660e+03
1.661376e+03,6.463192e+03
1.672947e+03,6.427945e+03
1.684517e+03,6.377034e+03
1.696088e+03,6.304728e+03
1.707659e+03,6.260521e+03
1.719230e+03,6.203902e+03
1.730801e+03,6.154054e+03
1.742371e+03,6.110422e+03
1.753942e+03,6.056011e+03
1.765513e+03,5.973502e+03
1.777084e+03,5.945702e+03
1.788655e+03,5.885579e+03
1.800225e+03,5.822386e+03
1.811796e+03,5.807157e+03
1.823367e+03,5.722289e+03
1.834938e+03,5.665727e+03
1.846509e+03,5.646292e+03
1.858079e+03,5.594583e+03
1.869650e+03,5.551528e+03
1.881221e+03,5.485474e+03
1.892792e+03,5.452311e+03
1.904363e+03,5.384429e+03
1.915933e+03,5.319300e+03
1.927504e+03,5.291380e+03
1.939075e+03,5.234770e+03
1.950646e+03,5.149886e+03
1.962217e+03,5.126138e+03
1.973787e+03,5.066116e+03
1.985358e+03,5.055000e+03
1.996929e+03,4.969206e+03
2.008500e+03,4.932159e+03
2.020071e+03,4.859802e+03
2.031641e+03,4.843093e+03
2.043212e+03,4.731611e+03
2.054783e+03,4.672749e+03
2.066354e+03,4.691751e+03
2.077925e+03,4.594244e+03
2.089496e+03,4.548731e+03
2.101066e+03,4.492792e+03
2.112637e+03,4.463235e+03
2.124208e+03,4.401822e+03
2.135779e+03,4.323133e+03
2.147350e+03,4.293685e+03
2.158920e+03,4.223344e+03
2.170491e+03,4.157026e+03
2.182062e+03,4.127192e+03
2.193633e+03,4.073403e+03
2.205204e+03,4.041000e+03
2.216774e+03,3.983114e+03
2.228345e+03,3.934838e+03
2.239916e+03,3.881863e+03
2.251487e+03,3.885118e+03
2.263058e+03,3.806342e+03
2.274628e+03,3.778379e+03
2.286199e+03,3.695848e+03
2.297770e+03,3.675024e+03
2.309341e+03,3.647623e+03
2.320912e+03,3.573407e+03
2.332482e+03,3.570406e+03
2.344053e+03,3.504683e+03
2.355624e+03,3.461168e+03
2.367195e+03,3.409498e+03
2.378766e+03,3.377783e+03
2.390336e+03,3.369332e+03
2.401907e+03,3.303625e+03
2.413478e+03,3.268379e+03
2.425049e+03,3.264414e+03
2.436620e+03,3.187094e+03
2.448190e+03,3.118042e+03
2.459761e+03,3.127467e+03
2.471332e+03,3.082595e+03
2.482903e+03,3.064787e+03
2.494474e+03,2.998798e+03
2.506044e+03,2.979390e+03
2.517615e+03,2.912865e+03
2.529186e+03,2.939594e+03
2.540757e+03,2.847185e+03
2.552328e+03,2.855844e+03
2.563898e+03,2.820266e+03
2.575469e+03,2.799426e+03
2.587040e+03,2.793043e+03
2.598611e+03,2.738279e+03
2.610182e+03,2.734859e+03
2.621752e+03,2.697388e+03
2.633323e+03,2.671293e+03
2.644894e+03,2.628416e+03
2.656465e+03,2.591996e+03
2.668036e+03,2.574034e+03
2.679606e+03,2.545183e+03
2.691177e+03,2.505904e+03
2.702748e+03,2.501807e+03
2.714319e+03,2.458659e+03
2.725890e+03,2.451505e+03
2.737460e+03,2.450892e+03
2.749031e+03,2.431369e+03
2.760602e+03,2.373696e+03
2.772173e+03,2.367701e+03
2.783744e+03,2.327362e+03
2.795314e+03,2.307304e+03
2.806885e+03,2.296729e+03
2.818456e+03,2.260829e+03
2.830027e+03,2.278400e+03
2.841598e+03,2.236825e+03
2.853168e+03,2.194421e+03
2.864739e+03,2.198290e+03
2.876310e+03,2.215184e+03
2.887881e+03,2.178488e+03
2.899452e+03,2.143098e+03
2.911022e+03,2.157036e+03
2.922593e+03,2.110486e+03
2.934164e+03,2.071021e+03
2.945735e+03,2.037817e+03
2.957306e+03,2.107129e+03
2.968876e+03,2.032062e+03
2.980447e+03,2.011862e+03
2.992018e+03,2.007664e+03
3.003589e+03,1.964130e+03
3.015160e+03,1.930042e+03
3.026730e+03,1.900579e+03
3.038301e+03,1.930594e+03
3.049872e+03,1.905845e+03
3.061443e+03,1.911928e+03
3.073014e+03,1.870572e+03
3.084584e+03,1.901771e+03
3.096155e+03,1.904353e+03
3.107726e+03,1.903430e+03
3.119297e+03,1.855005e+03
3.130868e+03,1.926891e+03
3.142438e+03,1.867779e+03
3.154009e+03,1.907534e+03
3.165580e+03,1.826256e+03
3.177151e+03,1.853004e+03
3.188722e+03,1.847925e+03
3.200292e+03,1.868324e+03
3.211863e+03,0.000000e+00
3.223434e+03,0.000000e+00
3.235005e+03,0.000000e+00
3.246576e+03,0.000000e+00
3.258146e+03,0.000000e+00
3.269717e+03,0.000000e+00
3.281288e+03,0.000000e+00
3.292859e+03,0.000000e+00
3.304430e+03,0.000000e+00
3.316000e+03,0.000000e+00
3.327571e+03,0.000000e+00
3.339142e+03,0.000000e+00
3.350713e+03,0.000000e+00
3.362284e+03,0.000000e+00
3.373854e+03,0.000000e+00
3.385425e+03,0.000000e+00
3.396996e+03,0.000000e+00
3.408567e+03,0.000000e+00
3.420138e+03,0.000000e+00
3.431708e+03,0.000000e+00
3.443279e+03,0.000000e+00
3.454850e+03,0.000000e+00
3.466421e+03,0.000000e+00
3.477992e+03,0.000000e+00
3.489563e+03,0.000000e+00
3.500169e+03,0.000000e+00

File: blue fibre15.CSV
9.931763e+01,0.000000e+00
1.108884e+02,0.000000e+00
1.224592e+02,0.000000e+00
1.340300e+02,0.000000e+00
1.456008e+02,0.000000e+00
1.571716e+02,0.000000e+00
1.687424e+02,0.000000e+00
1.803132e+02,0.000000e+00
1.918840e+02,0.000000e+00
2.034548e+02,6.289536e+03
2.150256e+02,6.348030e+03
2.265964e+02,6.358506e+03
2.381673e+02,6.425587e+03
2.497381e+02,6.452198e+03
2.613088e+02,6.477084e+03
2.728796e+02,6.536801e+03
2.844504e+02,6.579856e+03
2.960212e+02,6.611467e+03
3.075920e+02,6.629937e+03
3.191628e+02,6.630251e+03
3.307336e+02,6.683140e+03
3.423044e+02,6.691630e+03
3.538752e+02,6.694367e+03
3.654461e+02,6.698528e+03
3.770169e+02,6.751062e+03
3.885877e+02,6.728478e+03
4.001585e+02,6.742272e+03
4.117293e+02,6.721704e+03
4.233001e+02,6.758936e+03
4.348709e+02,6.727637e+03
4.464417e+02,6.730055e+03
4.580125e+02,6.720319e+03
4.695833e+02,6.681875e+03
4.811541e+02,6.689122e+03
4.927249e+02,6.702048e+03
5.042957e+02,6.661411e+03
5.158665e+02,6.650108e+03
5.274373e+02,6.612996e+03
5.390081e+02,6.581051e+03
5.505789e+02,6.580005e+03
5.621497e+02,6.593132e+03
5.737205e+02,6.536002e+03
5.852913e+02,6.549870e+03
5.968621e+02,6.542311e+03
6.084329e+02,6.505852e+03
6.200037e+02,6.492157e+03
6.315745e+02,6.462958e+03
6.431453e+02,6.427153e+03
6.547161e+02,6.398604e+03
6.662869e+02,6.389227e+03
6.778577e+02,6.325540e+03
6.894285e+02,6.281755e+03
7.009993e+02,6.276682e+03
7.125701e+02,6.219610e+03
7.241409e+02,6.197491e+03
7.357117e+02,6.117088e+03
7.472825e+02,6.117847e+03
7.588533e+02,6.072050e+03
7.704241e+02,6.024280e+03
7.819949e+02,5.992404e+03
7.935657e+02,5.947619e+03
8.051365e+02,5.905430e+03
8.167073e+02,5.864404e+03
8.282781e+02,5.869369e+03
8.398489e+02,5.833967e+03
8.514197e+02,5.775984e+03
8.629905e+02,5.749560e+03
8.745613e+02,5.719647e+03
8.861321e+02,5.671093e+03
8.977029e+02,5.613048e+03
9.092737e+02,5.571892e+03
9.208445e+02,5.502891e+03
9.324153e+02,5.478587e+03
9.439861e+02,5.421621e+03
9.555569e+02,5.405683e+03
9.671277e+02,5.364313e+03
9.786985e+02,5.333339e+03
9.902693e+02,5.286579e+03
1.001840e+03,5.237938e+03
1.013411e+03,5.194234e+03
1.024982e+03,5.187129e+03
1.036552e+03,5.156366e+03
1.048123e+03,5.130540e+03
1.059694e+03,5.089744e+03
1.071265e+03,5.065928e+03
1.082836e+03,5.042989e+03
1.094406e+03,5.038639e+03
1.105977e+03,4.961822e+03
1.117548e+03,4.982712e+03
1.129119e+03,4.929702e+03
1.140690e+03,4.874960e+03
1.152261e+03,4.877476e+03
1.163831e+03,4.822825e+03
1.175402e+03,4.772595e+03
1.186973e+03,4.752581e+03
1.198544e+03,4.738685e+03
1.210115e+03,4.717131e+03
1.221685e+03,4.684510e+03
1.233256e+03,4.688109e+03
1.244827e+03,4.656839e+03
1.256398e+03,4.632677e+03
1.267969e+03,4.614295e+03
1.279539e+03,4.598505e+03
1.291110e+03,4.602288e+03
1.302681e+03,4.574969e+03
1.314252e+03,4.533587e+03
1.325823e+03,4.523604e+03
1.337393e+03,4.559289e+03
1.348964e+03,4.496394e+03
1.360535e+03,4.486775e+03
1.372106e+03,4.460919e+03
1.383677e+03,4.498766e+03
1.395247e+03,4.447458e+03
1.406818e+03,4.425511e+03
1.418389e+03,4.413439e+03
1.429960e+03,4.413907e+03
1.441531e+03,4.382561e+03
1.453101e+03,4.356093e+03
1.464672e+03,4.355267e+03
1.476243e+03,4.338726e+03
1.487814e+03,4.328244e+03
1.499385e+03,4.305630e+03
1.510955e+03,4.300071e+03
1.522526e+03,4.282651e+03
1.534097e+03,4.262469e+03
1.545668e+03,4.232862e+03
1.557239e+03,4.236307e+03
1.568809e+03,4.227396e+03
1.580380e+03,4.222540e+03
1.591951e+03,4.189797e+03
1.603522e+03,4.198967e+03
1.615093e+03,4.162567e+03
1.626663e+03,4.167324e+03
1.638234e+03,4.118916e+03
1.649805e+03,4.092273e+03
1.661376e+03,4.090836e+03
1.672947e+03,4.052856e+03
1.684517e+03,4.049468e+03
1.696088e+03,4.008250e+03
1.707659e+03,4.002945e+03
1.719230e+03,3.986160e+03
1.730801e+03,3.957200e+03
1.742371e+03,3.930915e+03
1.753942e+03,3.909866e+03
1.765513e+03,3.896782e+03
1.777084e+03,3.880073e+03
1.788655e+03,3.863111e+03
1.800225e+03,3.814990e+03
1.811796e+03,3.825390e+03
1.823367e+03,3.776503e+03
1.834938e+03,3.756779e+03
1.846509e+03,3.733694e+03
1.858079e+03,3.715231e+03
1.869650e+03,3.677951e+03
1.881221e+03,3.653684e+03
1.892792e+03,3.636308e+03
1.904363e+03,3.590871e+03
1.915933e+03,3.571506e+03
1.927504e+03,3.542661e+03
1.939075e+03,3.528261e+03
1.950646e+03,3.516125e+03
1.962217e+03,3.477451e+03
1.973787e+03,3.425480e+03
1.985358e+03,3.404982e+03
1.996929e+03,3.372279e+03
2.008500e+03,3.363472e+03
2.020071e+03,3.328193e+03
2.031641e+03,3.312532e+03
2.043212e+03,3.242172e+03
2.054783e+03,3.244085e+03
2.066354e+03,3.190699e+03
2.077925e+03,3.182101e+03
2.089496e+03,3.135771e+03
2.101066e+03,3.094329e+03
2.112637e+03,3.080735e+03
2.124208e+03,3.051828e+03
2.135779e+03,2.991828e+03
2.147350e+03,2.958886e+03
2.158920e+03,2.944547e+03
2.170491e+03,2.904773e+03
2.182062e+03,2.887058e+03
2.193633e+03,2.857315e+03
2.205204e+03,2.847469e+03
2.216774e+03,2.807673e+03
2.228345e+03,2.766915e+03
2.239916e+03,2.766942e+03
2.251487e+03,2.719431e+03
2.263058e+03,2.699927e+03
2.274628e+03,2.665893e+03
2.286199e+03,2.620509e+03
2.297770e+03,2.607638e+03
2.309341e+03,2.568788e+03
2.320912e+03,2.542451e+03
2.332482e+03,2.526656e+03
2.344053e+03,2.508660e+03
2.355624e+03,2.478092e+03
2.367195e+03,2.424937e+03
2.378766e+03,2.441252e+03
2.390336e+03,2.395457e+03
2.401907e+03,2.369180e+03
2.413478e+03,2.359176e+03
2.425049e+03,2.337381e+03
2.436620e+03,2.311686e+03
2.448190e+03,2.284190e+03
2.459761e+03,2.282515e+03
2.471332e+03,2.230959e+03
2.482903e+03,2.221558e+03
2.494474e+03,2.195563e+03
2.506044e+03,2.166371e+03
2.517615e+03,2.171687e+03
2.529186e+03,2.147302e+03
2.540757e+03,2.107646e+03
2.552328e+03,2.095157e+03
2.563898e+03,2.081278e+03
2.575469e+03,2.036082e+03
2.587040e+03,2.037623e+03
2.598611e+03,2.032541e+03
2.610182e+03,1.999677e+03
2.621752e+03,1.979127e+03
2.633323e+03,1.945012e+03
2.644894e+03,1.930747e+03
2.656465e+03,1.914953e+03
2.668036e+03,1.901484e+03
2.679606e+03,1.896893e+03
2.691177e+03,1.890363e+03
2.702748e+03,1.862293e+03
2.714319e+03,1.853610e+03
2.725890e+03,1.798031e+03
2.737460e+03,1.818655e+03
2.749031e+03,1.809561e+03
2.760602e+03,1.774303e+03
2.772173e+03,1.757766e+03
2.783744e+03,1.761850e+03
2.795314e+03,1.724413e+03
2.806885e+03,1.724302e+03
2.818456e+03,1.720758e+03
2.830027e+03,1.679509e+03
2.841598e+03,1.699089e+03
2.853168e+03,1.690178e+03
2.864739e+03,1.665714e+03
2.876310e+03,1.689631e+03
2.887881e+03,1.683403e+03
2.899452e+03,1.675231e+03
2.911022e+03,1.634196e+03
2.922593e+03,1.611212e+03
2.934164e+03,1.620794e+03
2.945735e+03,1.602577e+03
2.957306e+03,1.620141e+03
2.968876e+03,1.555226e+03
2.980447e+03,1.516808e+03
2.992018e+03,1.529652e+03
3.003589e+03,1.522668e+03
3.015160e+03,1.501775e+03
3.026730e+03,1.472857e+03
3.038301e+03,1.496346e+03
3.049872e+03,1.475600e+03
3.061443e+03,1.495344e+03
3.073014e+03,1.469310e+03
3.084584e+03,1.496643e+03
3.096155e+03,1.486225e+03
3.107726e+03,1.465060e+03
3.119297e+03,1.430300e+03
3.130868e+03,1.459794e+03
3.142438e+03,1.456992e+03
3.154009e+03,1.438827e+03
3.165580e+03,1.506081e+03
3.177151e+03,1.433772e+03
3.188722e+03,1.412674e+03
3.200292e+03,1.491998e+03
3.211863e+03,0.000000e+00
3.223434e+03,0.000000e+00
3.235005e+03,0.000000e+00
3.246576e+03,0.000000e+00
3.258146e+03,0.000000e+00
3.269717e+03,0.000000e+00
3.281288e+03,0.000000e+00
3.292859e+03,0.000000e+00
3.304430e+03,0.000000e+00
3.316000e+03,0.000000e+00
3.327571e+03,0.000000e+00
3.339142e+03,0.000000e+00
3.350713e+03,0.000000e+00
3.362284e+03,0.000000e+00
3.373854e+03,0.000000e+00
3.385425e+03,0.000000e+00
3.396996e+03,0.000000e+00
3.408567e+03,0.000000e+00
3.420138e+03,0.000000e+00
3.431708e+03,0.000000e+00
3.443279e+03,0.000000e+00
3.454850e+03,0.000000e+00
3.466421e+03,0.000000e+00
3.477992e+03,0.000000e+00
3.489563e+03,0.000000e+00
3.500169e+03,0.000000e+00

File: clear frag1.CSV
9.931763e+01,0.000000e+00
1.108884e+02,0.000000e+00
1.224592e+02,0.000000e+00
1.340300e+02,0.000000e+00
1.456008e+02,0.000000e+00
1.571716e+02,0.000000e+00
1.687424e+02,0.000000e+00
1.803132e+02,0.000000e+00
1.918840e+02,0.000000e+00
2.034548e+02,2.843373e+03
2.150256e+02,2.873264e+03
2.265964e+02,2.863018e+03
2.381673e+02,2.872620e+03
2.497381e+02,2.893815e+03
2.613088e+02,2.895689e+03
2.728796e+02,2.889286e+03
2.844504e+02,2.902676e+03
2.960212e+02,2.904071e+03
3.075920e+02,2.891173e+03
3.191628e+02,2.900137e+03
3.307336e+02,2.916112e+03
3.423044e+02,2.920375e+03
3.538752e+02,2.895395e+03
3.654461e+02,2.899722e+03
3.770169e+02,2.915114e+03
3.885877e+02,2.899588e+03
4.001585e+02,2.869746e+03
4.117293e+02,2.884910e+03
4.233001e+02,2.857806e+03
4.348709e+02,2.890188e+03
4.464417e+02,2.864459e+03
4.580125e+02,2.855154e+03
4.695833e+02,2.832629e+03
4.811541e+02,2.828613e+03
4.927249e+02,2.819569e+03
5.042957e+02,2.820102e+03
5.158665e+02,2.794280e+03
5.274373e+02,2.793167e+03
5.390081e+02,2.768703e+03
5.505789e+02,2.773756e+03
5.621497e+02,2.773964e+03
5.737205e+02,2.729513e+03
5.852913e+02,2.726014e+03
5.968621e+02,2.720751e+03
6.084329e+02,2.703700e+03
6.200037e+02,2.675731e+03
6.315745e+02,2.670055e+03
6.431453e+02,2.652007e+03
6.547161e+02,2.636981e+03
6.662869e+02,2.621043e+03
6.778577e+02,2.608859e+03
6.894285e+02,2.593978e+03
7.009993e+02,2.581444e+03
7.125701e+02,2.565376e+03
7.241409e+02,2.551306e+03
7.357117e+02,2.535574e+03
7.472825e+02,2.515860e+03
7.588533e+02,2.504925e+03
7.704241e+02,2.479812e+03
7.819949e+02,2.458095e+03
7.935657e+02,2.457838e+03
8.051365e+02,2.465083e+03
8.167073e+02,2.430185e+03
8.282781e+02,2.410122e+03
8.398489e+02,2.406396e+03
8.514197e+02,2.383475e+03
8.629905e+02,2.379930e+03
8.745613e+02,2.346976e+03
8.861321e+02,2.350323e+03
8.977029e+02,2.338188e+03
9.092737e+02,2.312973e+03
9.208445e+02,2.277138e+03
9.324153e+02,2.263274e+03
9.439861e+02,2.272699e+03
9.555569e+02,2.239254e+03
9.671277e+02,2.238075e+03
9.786985e+02,2.235964e+03
9.902693e+02,2.207411e+03
1.001840e+03,2.191883e+03
1.013411e+03,2.166032e+03
1.024982e+03,2.164157e+03
1.036552e+03,2.161373e+03
1.048123e+03,2.141532e+03
1.059694e+03,2.128620e+03
1.071265e+03,2.145452e+03
1.082836e+03,2.129644e+03
1.094406e+03,2.122970e+03
1.105977e+03,2.096515e+03
1.117548e+03,2.101454e+03
1.129119e+03,2.074124e+03
1.140690e+03,2.049450e+03
1.152261e+03,2.061639e+03
1.163831e+03,2.035137e+03
1.175402e+03,2.023434e+03
1.186973e+03,2.004359e+03
1.198544e+03,2.011497e+03
1.210115e+03,1.999450e+03
1.221685e+03,1.981411e+03
1.233256e+03,1.979936e+03
1.244827e+03,1.968851e+03
1.256398e+03,1.969944e+03
1.267969e+03,1.946414e+03
1.279539e+03,1.927881e+03
1.291110e+03,1.948185e+03
1.302681e+03,1.928951e+03
1.314252e+03,1.924926e+03
1.325823e+03,1.929786e+03
1.337393e+03,1.920491e+03
1.348964e+03,1.907309e+03
1.360535e+03,1.889637e+03
1.372106e+03,1.886063e+03
1.383677e+03,1.872946e+03
1.395247e+03,1.858729e+03
1.406818e+03,1.848076e+03
1.418389e+03,1.829839e+03
1.429960e+03,1.833106e+03
1.441531e+03,1.816291e+03
1.453101e+03,1.809862e+03
1.464672e+03,1.785734e+03
1.476243e+03,1.784505e+03
1.487814e+03,1.767551e+03
1.499385e+03,1.751626e+03
1.510955e+03,1.742407e+03
1.522526e+03,1.751578e+03
1.534097e+03,1.739154e+03
1.545668e+03,1.712349e+03
1.557239e+03,1.716849e+03
1.568809e+03,1.711499e+03
1.580380e+03,1.693214e+03
1.591951e+03,1.692079e+03
1.603522e+03,1.668549e+03
1.615093e+03,1.666317e+03
1.626663e+03,1.651786e+03
1.638234e+03,1.627112e+03
1.649805e+03,1.607727e+03
1.661376e+03,1.614330e+03
1.672947e+03,1.591287e+03
1.684517e+03,1.584330e+03
1.696088e+03,1.563229e+03
1.707659e+03,1.548935e+03
1.719230e+03,1.558356e+03
1.730801e+03,1.541891e+03
1.742371e+03,1.519927e+03
1.753942e+03,1.510104e+03
1.765513e+03,1.494578e+03
1.777084e+03,1.480443e+03
1.788655e+03,1.480333e+03
1.800225e+03,1.488650e+03
1.811796e+03,1.465142e+03
1.823367e+03,1.434223e+03
1.834938e+03,1.432242e+03
1.846509e+03,1.405197e+03
1.858079e+03,1.393634e+03
1.869650e+03,1.391352e+03
1.881221e+03,1.365070e+03
1.892792e+03,1.367008e+03
1.904363e+03,1.356811e+03
1.915933e+03,1.333265e+03
1.927504e+03,1.318961e+03
1.939075e+03,1.306818e+03
1.950646e+03,1.281672e+03
1.962217e+03,1.294869e+03
1.973787e+03,1.268581e+03
1.985358e+03,1.261996e+03
1.996929e+03,1.247910e+03
2.008500e+03,1.244684e+03
2.020071e+03,1.216576e+03
2.031641e+03,1.214459e+03
2.043212e+03,1.220155e+03
2.054783e+03,1.179122e+03
2.066354e+03,1.178153e+03
2.077925e+03,1.161855e+03
2.089496e+03,1.141550e+03
2.101066e+03,1.143474e+03
2.112637e+03,1.128083e+03
2.124208e+03,1.111016e+03
2.135779e+03,1.094668e+03
2.147350e+03,1.090926e+03
2.158920e+03,1.078503e+03
2.170491e+03,1.069163e+03
2.182062e+03,1.051993e+03
2.193633e+03,1.046133e+03
2.205204e+03,1.044992e+03
2.216774e+03,1.019923e+03
2.228345e+03,1.017993e+03
2.239916e+03,9.940410e+02
2.251487e+03,9.938761e+02
2.263058e+03,9.646166e+02
2.274628e+03,9.597099e+02
2.286199e+03,9.561738e+02
2.297770e+03,9.502621e+02
2.309341e+03,9.233036e+02
2.320912e+03,9.255895e+02
2.332482e+03,9.054677e+02
2.344053e+03,9.079436e+02
2.355624e+03,8.986172e+02
2.367195e+03,8.872691e+02
2.378766e+03,8.772057e+02
2.390336e+03,8.674378e+02
2.401907e+03,8.641434e+02
2.413478e+03,8.362883e+02
2.425049e+03,8.337505e+02
2.436620e+03,8.336282e+02
2.448190e+03,8.125361e+02
2.459761e+03,8.174039e+02
2.471332e+03,7.953369e+02
2.482903e+03,8.003964e+02
2.494474e+03,7.881330e+02
2.506044e+03,7.718482e+02
2.517615e+03,7.756376e+02
2.529186e+03,7.516817e+02
2.540757e+03,7.592409e+02
2.552328e+03,7.511183e+02
2.563898e+03,7.483502e+02
2.575469e+03,7.411243e+02
2.587040e+03,7.197658e+02
2.598611e+03,7.287217e+02
2.610182e+03,7.118829e+02
2.621752e+03,7.032950e+02
2.633323e+03,7.140930e+02
2.644894e+03,7.052806e+02
2.656465e+03,7.021432e+02
2.668036e+03,7.007311e+02
2.679606e+03,6.878824e+02
2.691177e+03,6.825945e+02
2.702748e+03,6.867910e+02
2.714319e+03,6.602161e+02
2.725890e+03,6.453878e+02
2.737460e+03,6.500255e+02
2.749031e+03,6.532562e+02
2.760602e+03,6.367100e+02
2.772173e+03,6.417471e+02
2.783744e+03,6.475281e+02
2.795314e+03,6.379717e+02
2.806885e+03,6.205819e+02
2.818456e+03,6.226828e+02
2.830027e+03,6.085910e+02
2.841598e+03,6.243746e+02
2.853168e+03,6.165102e+02
2.864739e+03,6.336620e+02
2.876310e+03,6.300241e+02
2.887881e+03,6.666680e+02
2.899452e+03,6.701946e+02
2.911022e+03,6.507096e+02
2.922593e+03,6.072933e+02
2.934164e+03,6.214976e+02
2.945735e+03,5.958712e+02
2.957306e+03,6.080469e+02
2.968876e+03,5.962184e+02
2.980447e+03,5.796215e+02
2.992018e+03,5.925939e+02
3.003589e+03,5.698253e+02
3.015160e+03,5.466713e+02
3.026730e+03,5.526310e+02
3.038301e+03,5.416395e+02
3.049872e+03,5.183539e+02
3.061443e+03,5.456235e+02
3.073014e+03,5.359460e+02
3.084584e+03,5.372494e+02
3.096155e+03,5.305284e+02
3.107726e+03,5.532401e+02
3.119297e+03,5.646396e+02
3.130868e+03,5.447396e+02
3.142438e+03,5.383625e+02
3.154009e+03,5.510892e+02
3.165580e+03,5.453135e+02
3.177151e+03,5.100541e+02
3.188722e+03,5.045480e+02
3.200292e+03,5.479957e+02
3.211863e+03,0.000000e+00
3.223434e+03,0.000000e+00
3.235005e+03,0.000000e+00
3.246576e+03,0.000000e+00
3.258146e+03,0.000000e+00
3.269717e+03,0.000000e+00
3.281288e+03,0.000000e+00
3.292859e+03,0.000000e+00
3.304430e+03,0.000000e+00
3.316000e+03,0.000000e+00
3.327571e+03,0.000000e+00
3.339142e+03,0.000000e+00
3.350713e+03,0.000000e+00
3.362284e+03,0.000000e+00
3.373854e+03,0.000000e+00
3.385425e+03,0.000000e+00
3.396996e+03,0.000000e+00
3.408567e+03,0.000000e+00
3.420138e+03,0.000000e+00
3.431708e+03,0.000000e+00
3.443279e+03,0.000000e+00
3.454850e+03,0.000000e+00
3.466421e+03,0.000000e+00
3.477992e+03,0.000000e+00
3.489563e+03,0.000000e+00
3.500169e+03,0.000000e+00