Folder: Taff_Bargoed_microplastics_data/RAMAN_data/20012023_r3 (part 5)

File: blue fibre2.CSV
9.931763e+01,0.000000e+00
1.108884e+02,0.000000e+00
1.224592e+02,0.000000e+00
1.340300e+02,0.000000e+00
1.456008e+02,0.000000e+00
1.571716e+02,0.000000e+00
1.687424e+02,0.000000e+00
1.803132e+02,0.000000e+00
1.918840e+02,0.000000e+00
2.034548e+02,6.636783e+03
2.150256e+02,6.646509e+03
2.265964e+02,6.664792e+03
2.381673e+02,6.721285e+03
2.497381e+02,6.766510e+03
2.613088e+02,6.770964e+03
2.728796e+02,6.822300e+03
2.844504e+02,6.868885e+03
2.960212e+02,6.869115e+03
3.075920e+02,6.874252e+03
3.191628e+02,6.906159e+03
3.307336e+02,6.913385e+03
3.423044e+02,6.932523e+03
3.538752e+02,6.947790e+03
3.654461e+02,6.933095e+03
3.770169e+02,7.007378e+03
3.885877e+02,6.992651e+03
4.001585e+02,6.960994e+03
4.117293e+02,6.983259e+03
4.233001e+02,6.970345e+03
4.348709e+02,6.990729e+03
4.464417e+02,6.994061e+03
4.580125e+02,7.000376e+03
4.695833e+02,6.988361e+03
4.811541e+02,6.972098e+03
4.927249e+02,6.990203e+03
5.042957e+02,6.968201e+03
5.158665e+02,6.999270e+03
5.274373e+02,6.952519e+03
5.390081e+02,6.934316e+03
5.505789e+02,6.939255e+03
5.621497e+02,6.932617e+03
5.737205e+02,6.897345e+03
5.852913e+02,6.925897e+03
5.968621e+02,6.885868e+03
6.084329e+02,6.880002e+03
6.200037e+02,6.875607e+03
6.315745e+02,6.846339e+03
6.431453e+02,6.805808e+03
6.547161e+02,6.796303e+03
6.662869e+02,6.786703e+03
6.778577e+02,6.759831e+03
6.894285e+02,6.721669e+03
7.009993e+02,6.727443e+03
7.125701e+02,6.700886e+03
7.241409e+02,6.670958e+03
7.357117e+02,6.645208e+03
7.472825e+02,6.640371e+03
7.588533e+02,6.636100e+03
7.704241e+02,6.575316e+03
7.819949e+02,6.576209e+03
7.935657e+02,6.553076e+03
8.051365e+02,6.515421e+03
8.167073e+02,6.499083e+03
8.282781e+02,6.486669e+03
8.398489e+02,6.471719e+03
8.514197e+02,6.465047e+03
8.629905e+02,6.425002e+03
8.745613e+02,6.400979e+03
8.861321e+02,6.401120e+03
8.977029e+02,6.366855e+03
9.092737e+02,6.348548e+03
9.208445e+02,6.305427e+03
9.324153e+02,6.288386e+03
9.439861e+02,6.285672e+03
9.555569e+02,6.237858e+03
9.671277e+02,6.232204e+03
9.786985e+02,6.207162e+03
9.902693e+02,6.166194e+03
1.001840e+03,6.173075e+03
1.013411e+03,6.146474e+03
1.024982e+03,6.156492e+03
1.036552e+03,6.119273e+03
1.048123e+03,6.110865e+03
1.059694e+03,6.102934e+03
1.071265e+03,6.097025e+03
1.082836e+03,6.092912e+03
1.094406e+03,6.078964e+03
1.105977e+03,6.066361e+03
1.117548e+03,6.068362e+03
1.129119e+03,6.041389e+03
1.140690e+03,6.018341e+03
1.152261e+03,6.025067e+03
1.163831e+03,6.019769e+03
1.175402e+03,5.984375e+03
1.186973e+03,5.974161e+03
1.198544e+03,5.993390e+03
1.210115e+03,5.983000e+03
1.221685e+03,5.992884e+03
1.233256e+03,5.960833e+03
1.244827e+03,5.950657e+03
1.256398e+03,5.962545e+03
1.267969e+03,5.937213e+03
1.279539e+03,5.936095e+03
1.291110e+03,5.942745e+03
1.302681e+03,5.899153e+03
1.314252e+03,5.905856e+03
1.325823e+03,5.907467e+03
1.337393e+03,5.929255e+03
1.348964e+03,5.882439e+03
1.360535e+03,5.860042e+03
1.372106e+03,5.855047e+03
1.383677e+03,5.844636e+03
1.395247e+03,5.808278e+03
1.406818e+03,5.790240e+03
1.418389e+03,5.759251e+03
1.429960e+03,5.764293e+03
1.441531e+03,5.721526e+03
1.453101e+03,5.692935e+03
1.464672e+03,5.685301e+03
1.476243e+03,5.701805e+03
1.487814e+03,5.681367e+03
1.499385e+03,5.633678e+03
1.510955e+03,5.625425e+03
1.522526e+03,5.578413e+03
1.534097e+03,5.612334e+03
1.545668e+03,5.584036e+03
1.557239e+03,5.591101e+03
1.568809e+03,5.604367e+03
1.580380e+03,5.561695e+03
1.591951e+03,5.553728e+03
1.603522e+03,5.531655e+03
1.615093e+03,5.461188e+03
1.626663e+03,5.408544e+03
1.638234e+03,5.388447e+03
1.649805e+03,5.351609e+03
1.661376e+03,5.311729e+03
1.672947e+03,5.285733e+03
1.684517e+03,5.235803e+03
1.696088e+03,5.243720e+03
1.707659e+03,5.205843e+03
1.719230e+03,5.200229e+03
1.730801e+03,5.134933e+03
1.742371e+03,5.121628e+03
1.753942e+03,5.071060e+03
1.765513e+03,5.057625e+03
1.777084e+03,5.029901e+03
1.788655e+03,4.985782e+03
1.800225e+03,4.956888e+03
1.811796e+03,4.921231e+03
1.823367e+03,4.909899e+03
1.834938e+03,4.865147e+03
1.846509e+03,4.835891e+03
1.858079e+03,4.788775e+03
1.869650e+03,4.773862e+03
1.881221e+03,4.714533e+03
1.892792e+03,4.692614e+03
1.904363e+03,4.631234e+03
1.915933e+03,4.589569e+03
1.927504e+03,4.598830e+03
1.939075e+03,4.567515e+03
1.950646e+03,4.524744e+03
1.962217e+03,4.504198e+03
1.973787e+03,4.477456e+03
1.985358e+03,4.398289e+03
1.996929e+03,4.405208e+03
2.008500e+03,4.342473e+03
2.020071e+03,4.317475e+03
2.031641e+03,4.266733e+03
2.043212e+03,4.231240e+03
2.054783e+03,4.161794e+03
2.066354e+03,4.152615e+03
2.077925e+03,4.136763e+03
2.089496e+03,4.127379e+03
2.101066e+03,4.070654e+03
2.112637e+03,4.038777e+03
2.124208e+03,3.993222e+03
2.135779e+03,3.943857e+03
2.147350e+03,3.880168e+03
2.158920e+03,3.870931e+03
2.170491e+03,3.858504e+03
2.182062e+03,3.804379e+03
2.193633e+03,3.774909e+03
2.205204e+03,3.749011e+03
2.216774e+03,3.725036e+03
2.228345e+03,3.653401e+03
2.239916e+03,3.623015e+03
2.251487e+03,3.600130e+03
2.263058e+03,3.590831e+03
2.274628e+03,3.507586e+03
2.286199e+03,3.472680e+03
2.297770e+03,3.485177e+03
2.309341e+03,3.434264e+03
2.320912e+03,3.433894e+03
2.332482e+03,3.387831e+03
2.344053e+03,3.376444e+03
2.355624e+03,3.318762e+03
2.367195e+03,3.298220e+03
2.378766e+03,3.272250e+03
2.390336e+03,3.255805e+03
2.401907e+03,3.229213e+03
2.413478e+03,3.186750e+03
2.425049e+03,3.128658e+03
2.436620e+03,3.170760e+03
2.448190e+03,3.139731e+03
2.459761e+03,3.071168e+03
2.471332e+03,3.077132e+03
2.482903e+03,3.050052e+03
2.494474e+03,3.037377e+03
2.506044e+03,3.020174e+03
2.517615e+03,2.980958e+03
2.529186e+03,2.962805e+03
2.540757e+03,2.933789e+03
2.552328e+03,2.916834e+03
2.563898e+03,2.898263e+03
2.575469e+03,2.867438e+03
2.587040e+03,2.821407e+03
2.598611e+03,2.824881e+03
2.610182e+03,2.828869e+03
2.621752e+03,2.795223e+03
2.633323e+03,2.769908e+03
2.644894e+03,2.749909e+03
2.656465e+03,2.743222e+03
2.668036e+03,2.731917e+03
2.679606e+03,2.671848e+03
2.691177e+03,2.692272e+03
2.702748e+03,2.675165e+03
2.714319e+03,2.648497e+03
2.725890e+03,2.618460e+03
2.737460e+03,2.610964e+03
2.749031e+03,2.595911e+03
2.760602e+03,2.586475e+03
2.772173e+03,2.560367e+03
2.783744e+03,2.546114e+03
2.795314e+03,2.498402e+03
2.806885e+03,2.480946e+03
2.818456e+03,2.484870e+03
2.830027e+03,2.457708e+03
2.841598e+03,2.454984e+03
2.853168e+03,2.424444e+03
2.864739e+03,2.422093e+03
2.876310e+03,2.422640e+03
2.887881e+03,2.416866e+03
2.899452e+03,2.424899e+03
2.911022e+03,2.356212e+03
2.922593e+03,2.343782e+03
2.934164e+03,2.338046e+03
2.945735e+03,2.377363e+03
2.957306e+03,2.317139e+03
2.968876e+03,2.267965e+03
2.980447e+03,2.271100e+03
2.992018e+03,2.280964e+03
3.003589e+03,2.288534e+03
3.015160e+03,2.204703e+03
3.026730e+03,2.228580e+03
3.038301e+03,2.204175e+03
3.049872e+03,2.212449e+03
3.061443e+03,2.183923e+03
3.073014e+03,2.152047e+03
3.084584e+03,2.152567e+03
3.096155e+03,2.186232e+03
3.107726e+03,2.117798e+03
3.119297e+03,2.114016e+03
3.130868e+03,2.089882e+03
3.142438e+03,2.085795e+03
3.154009e+03,2.131011e+03
3.165580e+03,2.112868e+03
3.177151e+03,2.072685e+03
3.188722e+03,2.079103e+03
3.200292e+03,2.069632e+03
3.211863e+03,0.000000e+00
3.223434e+03,0.000000e+00
3.235005e+03,0.000000e+00
3.246576e+03,0.000000e+00
3.258146e+03,0.000000e+00
3.269717e+03,0.000000e+00
3.281288e+03,0.000000e+00
3.292859e+03,0.000000e+00
3.304430e+03,0.000000e+00
3.316000e+03,0.000000e+00
3.327571e+03,0.000000e+00
3.339142e+03,0.000000e+00
3.350713e+03,0.000000e+00
3.362284e+03,0.000000e+00
3.373854e+03,0.000000e+00
3.385425e+03,0.000000e+00
3.396996e+03,0.000000e+00
3.408567e+03,0.000000e+00
3.420138e+03,0.000000e+00
3.431708e+03,0.000000e+00
3.443279e+03,0.000000e+00
3.454850e+03,0.000000e+00
3.466421e+03,0.000000e+00
3.477992e+03,0.000000e+00
3.489563e+03,0.000000e+00
3.500169e+03,0.000000e+00

File: blue fibre3.CSV
9.931763e+01,0.000000e+00
1.108884e+02,0.000000e+00
1.224592e+02,0.000000e+00
1.340300e+02,0.000000e+00
1.456008e+02,0.000000e+00
1.571716e+02,0.000000e+00
1.687424e+02,0.000000e+00
1.803132e+02,0.000000e+00
1.918840e+02,0.000000e+00
2.034548e+02,3.914551e+03
2.150256e+02,3.928093e+03
2.265964e+02,3.929227e+03
2.381673e+02,3.938145e+03
2.497381e+02,3.958358e+03
2.613088e+02,3.968637e+03
2.728796e+02,3.965252e+03
2.844504e+02,3.985819e+03
2.960212e+02,3.985457e+03
3.075920e+02,3.958393e+03
3.191628e+02,3.959071e+03
3.307336e+02,3.983596e+03
3.423044e+02,3.986321e+03
3.538752e+02,3.981260e+03
3.654461e+02,3.969329e+03
3.770169e+02,3.995157e+03
3.885877e+02,3.970687e+03
4.001585e+02,3.959887e+03
4.117293e+02,3.935253e+03
4.233001e+02,3.923901e+03
4.348709e+02,3.915166e+03
4.464417e+02,3.931818e+03
4.580125e+02,3.899236e+03
4.695833e+02,3.878435e+03
4.811541e+02,3.881290e+03
4.927249e+02,3.867976e+03
5.042957e+02,3.860718e+03
5.158665e+02,3.838456e+03
5.274373e+02,3.820669e+03
5.390081e+02,3.803830e+03
5.505789e+02,3.792003e+03
5.621497e+02,3.784556e+03
5.737205e+02,3.764737e+03
5.852913e+02,3.720169e+03
5.968621e+02,3.712907e+03
6.084329e+02,3.708372e+03
6.200037e+02,3.689182e+03
6.315745e+02,3.678678e+03
6.431453e+02,3.635725e+03
6.547161e+02,3.640338e+03
6.662869e+02,3.604530e+03
6.778577e+02,3.585624e+03
6.894285e+02,3.560816e+03
7.009993e+02,3.558957e+03
7.125701e+02,3.508926e+03
7.241409e+02,3.529843e+03
7.357117e+02,3.476140e+03
7.472825e+02,3.478626e+03
7.588533e+02,3.447187e+03
7.704241e+02,3.428961e+03
7.819949e+02,3.429191e+03
7.935657e+02,3.409668e+03
8.051365e+02,3.359759e+03
8.167073e+02,3.346353e+03
8.282781e+02,3.324273e+03
8.398489e+02,3.307053e+03
8.514197e+02,3.313589e+03
8.629905e+02,3.271694e+03
8.745613e+02,3.247911e+03
8.861321e+02,3.236992e+03
8.977029e+02,3.214319e+03
9.092737e+02,3.189926e+03
9.208445e+02,3.160080e+03
9.324153e+02,3.141308e+03
9.439861e+02,3.129702e+03
9.555569e+02,3.106617e+03
9.671277e+02,3.086427e+03
9.786985e+02,3.090552e+03
9.902693e+02,3.051761e+03
1.001840e+03,3.032460e+03
1.013411e+03,3.025790e+03
1.024982e+03,3.011718e+03
1.036552e+03,3.009669e+03
1.048123e+03,2.991730e+03
1.059694e+03,2.977398e+03
1.071265e+03,2.974684e+03
1.082836e+03,2.970166e+03
1.094406e+03,2.983145e+03
1.105977e+03,2.937489e+03
1.117548e+03,2.944872e+03
1.129119e+03,2.902013e+03
1.140690e+03,2.905819e+03
1.152261e+03,2.884796e+03
1.163831e+03,2.883709e+03
1.175402e+03,2.852850e+03
1.186973e+03,2.828374e+03
1.198544e+03,2.827790e+03
1.210115e+03,2.807934e+03
1.221685e+03,2.790211e+03
1.233256e+03,2.779961e+03
1.244827e+03,2.780505e+03
1.256398e+03,2.765870e+03
1.267969e+03,2.749479e+03
1.279539e+03,2.761660e+03
1.291110e+03,2.772865e+03
1.302681e+03,2.749525e+03
1.314252e+03,2.749616e+03
1.325823e+03,2.754911e+03
1.337393e+03,2.740218e+03
1.348964e+03,2.702891e+03
1.360535e+03,2.685888e+03
1.372106e+03,2.661317e+03
1.383677e+03,2.664559e+03
1.395247e+03,2.643373e+03
1.406818e+03,2.610140e+03
1.418389e+03,2.619216e+03
1.429960e+03,2.582528e+03
1.441531e+03,2.580383e+03
1.453101e+03,2.569341e+03
1.464672e+03,2.561686e+03
1.476243e+03,2.549258e+03
1.487814e+03,2.524033e+03
1.499385e+03,2.503586e+03
1.510955e+03,2.493905e+03
1.522526e+03,2.491198e+03
1.534097e+03,2.459292e+03
1.545668e+03,2.470674e+03
1.557239e+03,2.468823e+03
1.568809e+03,2.466648e+03
1.580380e+03,2.453494e+03
1.591951e+03,2.431549e+03
1.603522e+03,2.444808e+03
1.615093e+03,2.460677e+03
1.626663e+03,2.382086e+03
1.638234e+03,2.362872e+03
1.649805e+03,2.323790e+03
1.661376e+03,2.324341e+03
1.672947e+03,2.304189e+03
1.684517e+03,2.281443e+03
1.696088e+03,2.266149e+03
1.707659e+03,2.241010e+03
1.719230e+03,2.253107e+03
1.730801e+03,2.249801e+03
1.742371e+03,2.212304e+03
1.753942e+03,2.190188e+03
1.765513e+03,2.173005e+03
1.777084e+03,2.167434e+03
1.788655e+03,2.127717e+03
1.800225e+03,2.137029e+03
1.811796e+03,2.119744e+03
1.823367e+03,2.086903e+03
1.834938e+03,2.063204e+03
1.846509e+03,2.070791e+03
1.858079e+03,2.042612e+03
1.869650e+03,2.023307e+03
1.881221e+03,1.998102e+03
1.892792e+03,1.984188e+03
1.904363e+03,1.971539e+03
1.915933e+03,1.966728e+03
1.927504e+03,1.929021e+03
1.939075e+03,1.916318e+03
1.950646e+03,1.900712e+03
1.962217e+03,1.871358e+03
1.973787e+03,1.875231e+03
1.985358e+03,1.853625e+03
1.996929e+03,1.832753e+03
2.008500e+03,1.818223e+03
2.020071e+03,1.785401e+03
2.031641e+03,1.793259e+03
2.043212e+03,1.755103e+03
2.054783e+03,1.739325e+03
2.066354e+03,1.712613e+03
2.077925e+03,1.722545e+03
2.089496e+03,1.707762e+03
2.101066e+03,1.676739e+03
2.112637e+03,1.652075e+03
2.124208e+03,1.652356e+03
2.135779e+03,1.627414e+03
2.147350e+03,1.627393e+03
2.158920e+03,1.600577e+03
2.170491e+03,1.582803e+03
2.182062e+03,1.559867e+03
2.193633e+03,1.528151e+03
2.205204e+03,1.526046e+03
2.216774e+03,1.490144e+03
2.228345e+03,1.473645e+03
2.239916e+03,1.485854e+03
2.251487e+03,1.457024e+03
2.263058e+03,1.444819e+03
2.274628e+03,1.425548e+03
2.286199e+03,1.406949e+03
2.297770e+03,1.395837e+03
2.309341e+03,1.377173e+03
2.320912e+03,1.360810e+03
2.332482e+03,1.348276e+03
2.344053e+03,1.352363e+03
2.355624e+03,1.331958e+03
2.367195e+03,1.321973e+03
2.378766e+03,1.298309e+03
2.390336e+03,1.295438e+03
2.401907e+03,1.281272e+03
2.413478e+03,1.248356e+03
2.425049e+03,1.253125e+03
2.436620e+03,1.238403e+03
2.448190e+03,1.231108e+03
2.459761e+03,1.212679e+03
2.471332e+03,1.205069e+03
2.482903e+03,1.201588e+03
2.494474e+03,1.173057e+03
2.506044e+03,1.178530e+03
2.517615e+03,1.161812e+03
2.529186e+03,1.143184e+03
2.540757e+03,1.138300e+03
2.552328e+03,1.123512e+03
2.563898e+03,1.130833e+03
2.575469e+03,1.109756e+03
2.587040e+03,1.092116e+03
2.598611e+03,1.093885e+03
2.610182e+03,1.088197e+03
2.621752e+03,1.063813e+03
2.633323e+03,1.056884e+03
2.644894e+03,1.061383e+03
2.656465e+03,1.045160e+03
2.668036e+03,1.034564e+03
2.679606e+03,1.042964e+03
2.691177e+03,1.029466e+03
2.702748e+03,1.020404e+03
2.714319e+03,1.003467e+03
2.725890e+03,9.887500e+02
2.737460e+03,9.839391e+02
2.749031e+03,9.685473e+02
2.760602e+03,9.923260e+02
2.772173e+03,9.791114e+02
2.783744e+03,9.667469e+02
2.795314e+03,9.589723e+02
2.806885e+03,9.470675e+02
2.818456e+03,9.555059e+02
2.830027e+03,9.518600e+02
2.841598e+03,9.589767e+02
2.853168e+03,9.241914e+02
2.864739e+03,9.181422e+02
2.876310e+03,9.152536e+02
2.887881e+03,9.638781e+02
2.899452e+03,9.538206e+02
2.911022e+03,9.234168e+02
2.922593e+03,9.102217e+02
2.934164e+03,9.285237e+02
2.945735e+03,9.128329e+02
2.957306e+03,9.514170e+02
2.968876e+03,9.264590e+02
2.980447e+03,8.927188e+02
2.992018e+03,8.618671e+02
3.003589e+03,8.700319e+02
3.015160e+03,8.361537e+02
3.026730e+03,8.435565e+02
3.038301e+03,8.173016e+02
3.049872e+03,8.450461e+02
3.061443e+03,8.371205e+02
3.073014e+03,8.004709e+02
3.084584e+03,8.157745e+02
3.096155e+03,8.218057e+02
3.107726e+03,8.096950e+02
3.119297e+03,8.319305e+02
3.130868e+03,8.311827e+02
3.142438e+03,8.232307e+02
3.154009e+03,8.479883e+02
3.165580e+03,8.270675e+02
3.177151e+03,8.480901e+02
3.188722e+03,8.007401e+02
3.200292e+03,8.352606e+02
3.211863e+03,0.000000e+00
3.223434e+03,0.000000e+00
3.235005e+03,0.000000e+00
3.246576e+03,0.000000e+00
3.258146e+03,0.000000e+00
3.269717e+03,0.000000e+00
3.281288e+03,0.000000e+00
3.292859e+03,0.000000e+00
3.304430e+03,0.000000e+00
3.316000e+03,0.000000e+00
3.327571e+03,0.000000e+00
3.339142e+03,0.000000e+00
3.350713e+03,0.000000e+00
3.362284e+03,0.000000e+00
3.373854e+03,0.000000e+00
3.385425e+03,0.000000e+00
3.396996e+03,0.000000e+00
3.408567e+03,0.000000e+00
3.420138e+03,0.000000e+00
3.431708e+03,0.000000e+00
3.443279e+03,0.000000e+00
3.454850e+03,0.000000e+00
3.466421e+03,0.000000e+00
3.477992e+03,0.000000e+00
3.489563e+03,0.000000e+00
3.500169e+03,0.000000e+00

File: blue fibre4.CSV
9.931763e+01,0.000000e+00
1.108884e+02,0.000000e+00
1.224592e+02,0.000000e+00
1.340300e+02,0.000000e+00
1.456008e+02,0.000000e+00
1.571716e+02,0.000000e+00
1.687424e+02,0.000000e+00
1.803132e+02,0.000000e+00
1.918840e+02,0.000000e+00
2.034548e+02,1.051899e+04
2.150256e+02,1.057905e+04
2.265964e+02,1.068651e+04
2.381673e+02,1.083713e+04
2.497381e+02,1.092278e+04
2.613088e+02,1.101875e+04
2.728796e+02,1.114345e+04
2.844504e+02,1.128443e+04
2.960212e+02,1.138987e+04
3.075920e+02,1.148845e+04
3.191628e+02,1.160775e+04
3.307336e+02,1.175910e+04
3.423044e+02,1.188976e+04
3.538752e+02,1.203829e+04
3.654461e+02,1.215099e+04
3.770169e+02,1.231110e+04
3.885877e+02,1.246675e+04
4.001585e+02,1.259455e+04
4.117293e+02,1.274362e+04
4.233001e+02,1.288550e+04
4.348709e+02,1.304495e+04
4.464417e+02,1.321596e+04
4.580125e+02,1.333318e+04
4.695833e+02,1.347341e+04
4.811541e+02,1.360224e+04
4.927249e+02,1.374474e+04
5.042957e+02,1.387491e+04
5.158665e+02,1.399692e+04
5.274373e+02,1.410203e+04
5.390081e+02,1.416972e+04
5.505789e+02,1.428556e+04
5.621497e+02,1.439837e+04
5.737205e+02,1.446632e+04
5.852913e+02,1.457575e+04
5.968621e+02,1.471280e+04
6.084329e+02,1.480358e+04
6.200037e+02,1.484330e+04
6.315745e+02,1.490827e+04
6.431453e+02,1.500741e+04
6.547161e+02,1.510578e+04
6.662869e+02,1.514584e+04
6.778577e+02,1.514799e+04
6.894285e+02,1.519395e+04
7.009993e+02,1.527256e+04
7.125701e+02,1.527661e+04
7.241409e+02,1.527022e+04
7.357117e+02,1.526974e+04
7.472825e+02,1.528886e+04
7.588533e+02,1.525555e+04
7.704241e+02,1.515503e+04
7.819949e+02,1.510160e+04
7.935657e+02,1.505522e+04
8.051365e+02,1.487697e+04
8.167073e+02,1.480423e+04
8.282781e+02,1.472562e+04
8.398489e+02,1.461663e+04
8.514197e+02,1.453456e+04
8.629905e+02,1.436046e+04
8.745613e+02,1.427009e+04
8.861321e+02,1.420242e+04
8.977029e+02,1.405525e+04
9.092737e+02,1.393547e+04
9.208445e+02,1.378853e+04
9.324153e+02,1.368697e+04
9.439861e+02,1.358068e+04
9.555569e+02,1.345634e+04
9.671277e+02,1.334148e+04
9.786985e+02,1.321971e+04
9.902693e+02,1.310172e+04
1.001840e+03,1.299357e+04
1.013411e+03,1.293278e+04
1.024982e+03,1.280763e+04
1.036552e+03,1.275861e+04
1.048123e+03,1.268110e+04
1.059694e+03,1.258594e+04
1.071265e+03,1.251742e+04
1.082836e+03,1.242706e+04
1.094406e+03,1.231514e+04
1.105977e+03,1.222336e+04
1.117548e+03,1.218770e+04
1.129119e+03,1.202970e+04
1.140690e+03,1.192958e+04
1.152261e+03,1.187154e+04
1.163831e+03,1.176183e+04
1.175402e+03,1.165505e+04
1.186973e+03,1.155355e+04
1.198544e+03,1.154842e+04
1.210115e+03,1.153367e+04
1.221685e+03,1.144798e+04
1.233256e+03,1.137522e+04
1.244827e+03,1.132001e+04
1.256398e+03,1.120200e+04
1.267969e+03,1.113300e+04
1.279539e+03,1.107262e+04
1.291110e+03,1.103442e+04
1.302681e+03,1.096350e+04
1.314252e+03,1.085067e+04
1.325823e+03,1.081797e+04
1.337393e+03,1.083273e+04
1.348964e+03,1.075325e+04
1.360535e+03,1.064909e+04
1.372106e+03,1.065497e+04
1.383677e+03,1.060041e+04
1.395247e+03,1.053295e+04
1.406818e+03,1.048861e+04
1.418389e+03,1.044984e+04
1.429960e+03,1.039198e+04
1.441531e+03,1.031023e+04
1.453101e+03,1.025867e+04
1.464672e+03,1.017866e+04
1.476243e+03,1.014720e+04
1.487814e+03,1.007623e+04
1.499385e+03,1.003066e+04
1.510955e+03,9.988113e+03
1.522526e+03,9.959889e+03
1.534097e+03,9.902968e+03
1.545668e+03,9.810709e+03
1.557239e+03,9.795393e+03
1.568809e+03,9.761271e+03
1.580380e+03,9.718152e+03
1.591951e+03,9.666467e+03
1.603522e+03,9.633919e+03
1.615093e+03,9.593489e+03
1.626663e+03,9.522631e+03
1.638234e+03,9.490660e+03
1.649805e+03,9.412405e+03
1.661376e+03,9.384509e+03
1.672947e+03,9.277438e+03
1.684517e+03,9.221196e+03
1.696088e+03,9.199049e+03
1.707659e+03,9.127514e+03
1.719230e+03,9.073191e+03
1.730801e+03,8.980358e+03
1.742371e+03,8.981651e+03
1.753942e+03,8.879938e+03
1.765513e+03,8.831567e+03
1.777084e+03,8.775341e+03
1.788655e+03,8.694145e+03
1.800225e+03,8.692941e+03
1.811796e+03,8.645155e+03
1.823367e+03,8.570013e+03
1.834938e+03,8.496614e+03
1.846509e+03,8.477313e+03
1.858079e+03,8.380827e+03
1.869650e+03,8.267627e+03
1.881221e+03,8.211573e+03
1.892792e+03,8.215082e+03
1.904363e+03,8.135591e+03
1.915933e+03,7.959948e+03
1.927504e+03,7.985744e+03
1.939075e+03,7.926912e+03
1.950646e+03,7.845073e+03
1.962217e+03,7.825650e+03
1.973787e+03,7.740213e+03
1.985358e+03,7.657930e+03
1.996929e+03,7.589724e+03
2.008500e+03,7.535964e+03
2.020071e+03,7.461744e+03
2.031641e+03,7.394093e+03
2.043212e+03,7.298450e+03
2.054783e+03,7.218479e+03
2.066354e+03,7.174982e+03
2.077925e+03,7.076435e+03
2.089496e+03,7.003330e+03
2.101066e+03,6.964775e+03
2.112637e+03,6.907297e+03
2.124208e+03,6.815612e+03
2.135779e+03,6.760033e+03
2.147350e+03,6.645847e+03
2.158920e+03,6.581187e+03
2.170491e+03,6.581460e+03
2.182062e+03,6.450305e+03
2.193633e+03,6.389656e+03
2.205204e+03,6.317476e+03
2.216774e+03,6.276208e+03
2.228345e+03,6.117874e+03
2.239916e+03,6.081309e+03
2.251487e+03,6.008697e+03
2.263058e+03,5.970302e+03
2.274628e+03,5.840815e+03
2.286199e+03,5.803693e+03
2.297770e+03,5.758706e+03
2.309341e+03,5.670218e+03
2.320912e+03,5.582474e+03
2.332482e+03,5.546232e+03
2.344053e+03,5.505891e+03
2.355624e+03,5.403269e+03
2.367195e+03,5.357896e+03
2.378766e+03,5.285419e+03
2.390336e+03,5.229230e+03
2.401907e+03,5.169497e+03
2.413478e+03,5.082372e+03
2.425049e+03,5.067118e+03
2.436620e+03,5.011357e+03
2.448190e+03,4.961888e+03
2.459761e+03,4.893482e+03
2.471332e+03,4.814431e+03
2.482903e+03,4.755455e+03
2.494474e+03,4.719494e+03
2.506044e+03,4.674161e+03
2.517615e+03,4.647461e+03
2.529186e+03,4.592497e+03
2.540757e+03,4.544669e+03
2.552328e+03,4.475314e+03
2.563898e+03,4.417753e+03
2.575469e+03,4.374064e+03
2.587040e+03,4.335458e+03
2.598611e+03,4.260074e+03
2.610182e+03,4.209605e+03
2.621752e+03,4.176041e+03
2.633323e+03,4.141733e+03
2.644894e+03,4.081999e+03
2.656465e+03,4.072891e+03
2.668036e+03,4.041271e+03
2.679606e+03,3.961787e+03
2.691177e+03,3.942259e+03
2.702748e+03,3.931082e+03
2.714319e+03,3.859677e+03
2.725890e+03,3.840781e+03
2.737460e+03,3.795878e+03
2.749031e+03,3.755119e+03
2.760602e+03,3.752505e+03
2.772173e+03,3.704517e+03
2.783744e+03,3.660530e+03
2.795314e+03,3.614015e+03
2.806885e+03,3.612181e+03
2.818456e+03,3.558039e+03
2.830027e+03,3.554706e+03
2.841598e+03,3.535601e+03
2.853168e+03,3.479922e+03
2.864739e+03,3.440362e+03
2.876310e+03,3.437073e+03
2.887881e+03,3.472461e+03
2.899452e+03,3.400584e+03
2.911022e+03,3.386137e+03
2.922593e+03,3.294918e+03
2.934164e+03,3.334502e+03
2.945735e+03,3.315142e+03
2.957306e+03,3.254201e+03
2.968876e+03,3.224329e+03
2.980447e+03,3.189373e+03
2.992018e+03,3.181316e+03
3.003589e+03,3.106104e+03
3.015160e+03,3.112592e+03
3.026730e+03,3.091322e+03
3.038301e+03,3.059010e+03
3.049872e+03,3.059301e+03
3.061443e+03,3.020043e+03
3.073014e+03,3.032491e+03
3.084584e+03,3.027472e+03
3.096155e+03,2.959299e+03
3.107726e+03,2.949516e+03
3.119297e+03,2.991433e+03
3.130868e+03,3.056196e+03
3.142438e+03,2.878427e+03
3.154009e+03,2.953018e+03
3.165580e+03,2.930445e+03
3.177151e+03,2.939021e+03
3.188722e+03,2.935599e+03
3.200292e+03,2.932890e+03
3.211863e+03,0.000000e+00
3.223434e+03,0.000000e+00
3.235005e+03,0.000000e+00
3.246576e+03,0.000000e+00
3.258146e+03,0.000000e+00
3.269717e+03,0.000000e+00
3.281288e+03,0.000000e+00
3.292859e+03,0.000000e+00
3.304430e+03,0.000000e+00
3.316000e+03,0.000000e+00
3.327571e+03,0.000000e+00
3.339142e+03,0.000000e+00
3.350713e+03,0.000000e+00
3.362284e+03,0.000000e+00
3.373854e+03,0.000000e+00
3.385425e+03,0.000000e+00
3.396996e+03,0.000000e+00
3.408567e+03,0.000000e+00
3.420138e+03,0.000000e+00
3.431708e+03,0.000000e+00
3.443279e+03,0.000000e+00
3.454850e+03,0.000000e+00
3.466421e+03,0.000000e+00
3.477992e+03,0.000000e+00
3.489563e+03,0.000000e+00
3.500169e+03,0.000000e+00