Folder: Taff_Bargoed_microplastics_data/RAMAN_data/20012023_r1

Note: README.md
# Taff_Bargoed_microplastics_data

File: black fibre1.CSV
1.995979e+02,4.237959e+03
2.102045e+02,4.245272e+03
2.208110e+02,4.273254e+03
2.314176e+02,4.271611e+03
2.420242e+02,4.285311e+03
2.526307e+02,4.333651e+03
2.632373e+02,4.331271e+03
2.738439e+02,4.321932e+03
2.844504e+02,4.360334e+03
2.950570e+02,4.359536e+03
3.056636e+02,4.345211e+03
3.162701e+02,4.357303e+03
3.268767e+02,4.360585e+03
3.374833e+02,4.350142e+03
3.480898e+02,4.370137e+03
3.586964e+02,4.359234e+03
3.693030e+02,4.371678e+03
3.799095e+02,4.375249e+03
3.905161e+02,4.366653e+03
4.011227e+02,4.342133e+03
4.117292e+02,4.344393e+03
4.223358e+02,4.358521e+03
4.329424e+02,4.323736e+03
4.435490e+02,4.326447e+03
4.541555e+02,4.323046e+03
4.647621e+02,4.309981e+03
4.753687e+02,4.306379e+03
4.859752e+02,4.326555e+03
4.965818e+02,4.306954e+03
5.071884e+02,4.265728e+03
5.177949e+02,4.263926e+03
5.284015e+02,4.264553e+03
5.390081e+02,4.207077e+03
5.496146e+02,4.189137e+03
5.602212e+02,4.206282e+03
5.708278e+02,4.193729e+03
5.814343e+02,4.170555e+03
5.920409e+02,4.147305e+03
6.026475e+02,4.133644e+03
6.132540e+02,4.113924e+03
6.238606e+02,4.090835e+03
6.344672e+02,4.085403e+03
6.450737e+02,4.061601e+03
6.556803e+02,4.058802e+03
6.662869e+02,4.014718e+03
6.768934e+02,3.996421e+03
6.875000e+02,3.977329e+03
6.981066e+02,3.944600e+03
7.087131e+02,3.925205e+03
7.193197e+02,3.930230e+03
7.299263e+02,3.915235e+03
7.405328e+02,3.882238e+03
7.511394e+02,3.850937e+03
7.617460e+02,3.836374e+03
7.723525e+02,3.781578e+03
7.829591e+02,3.775804e+03
7.935657e+02,3.786240e+03
8.041722e+02,3.733738e+03
8.147788e+02,3.704223e+03
8.253854e+02,3.694642e+03
8.359919e+02,3.683077e+03
8.465985e+02,3.646851e+03
8.572051e+02,3.629626e+03
8.678116e+02,3.606360e+03
8.784182e+02,3.576692e+03
8.890248e+02,3.553515e+03
8.996313e+02,3.531810e+03
9.102379e+02,3.523793e+03
9.208445e+02,3.474748e+03
9.314510e+02,3.447904e+03
9.420576e+02,3.438157e+03
9.526642e+02,3.406518e+03
9.632708e+02,3.396229e+03
9.738773e+02,3.366598e+03
9.844839e+02,3.339628e+03
9.950905e+02,3.322098e+03
1.005697e+03,3.297555e+03
1.016304e+03,3.266020e+03
1.026910e+03,3.261410e+03
1.037517e+03,3.260775e+03
1.048123e+03,3.227475e+03
1.058730e+03,3.196472e+03
1.069336e+03,3.187094e+03
1.079943e+03,3.154309e+03
1.090550e+03,3.178618e+03
1.101156e+03,3.130984e+03
1.111763e+03,3.105000e+03
1.122369e+03,3.130673e+03
1.132976e+03,3.091490e+03
1.143582e+03,3.090445e+03
1.154189e+03,3.081548e+03
1.164796e+03,3.013909e+03
1.175402e+03,3.010245e+03
1.186009e+03,2.980544e+03
1.196615e+03,2.973041e+03
1.207222e+03,2.937010e+03
1.217828e+03,2.943265e+03
1.228435e+03,2.927048e+03
1.239042e+03,2.891494e+03
1.249648e+03,2.863716e+03
1.260255e+03,2.862948e+03
1.270861e+03,2.831813e+03
1.281468e+03,2.849708e+03
1.292074e+03,2.832493e+03
1.302681e+03,2.804366e+03
1.313287e+03,2.778489e+03
1.323894e+03,2.761039e+03
1.334501e+03,2.763466e+03
1.345107e+03,2.744333e+03
1.355714e+03,2.735794e+03
1.366320e+03,2.724100e+03
1.376927e+03,2.698637e+03
1.387533e+03,2.655013e+03
1.398140e+03,2.647324e+03
1.408747e+03,2.645692e+03
1.419353e+03,2.621950e+03
1.429960e+03,2.601091e+03
1.440566e+03,2.572514e+03
1.451173e+03,2.561189e+03
1.461779e+03,2.546656e+03
1.472386e+03,2.528540e+03
1.482993e+03,2.493572e+03
1.493599e+03,2.497640e+03
1.504206e+03,2.464504e+03
1.514812e+03,2.471228e+03
1.525419e+03,2.436367e+03
1.536025e+03,2.426214e+03
1.546632e+03,2.410776e+03
1.557239e+03,2.421627e+03
1.567845e+03,2.411581e+03
1.578452e+03,2.394093e+03
1.589058e+03,2.390419e+03
1.599665e+03,2.351934e+03
1.610271e+03,2.325774e+03
1.620878e+03,2.311784e+03
1.631484e+03,2.290710e+03
1.642091e+03,2.271132e+03
1.652698e+03,2.257113e+03
1.663304e+03,2.231405e+03
1.673911e+03,2.228205e+03
1.684517e+03,2.211262e+03
1.695124e+03,2.195679e+03
1.705730e+03,2.174913e+03
1.716337e+03,2.159276e+03
1.726944e+03,2.134471e+03
1.737550e+03,2.121012e+03
1.748157e+03,2.106139e+03
1.758763e+03,2.086970e+03
1.769370e+03,2.075133e+03
1.779976e+03,2.039295e+03
1.790583e+03,2.033607e+03
1.801190e+03,2.036050e+03
1.811796e+03,2.000872e+03
1.822403e+03,1.963676e+03
1.833009e+03,1.985812e+03
1.843616e+03,1.949777e+03
1.854222e+03,1.933809e+03
1.864829e+03,1.924066e+03
1.875436e+03,1.914004e+03
1.886042e+03,1.884759e+03
1.896649e+03,1.869620e+03
1.907255e+03,1.846722e+03
1.917862e+03,1.822627e+03
1.928468e+03,1.807369e+03
1.939075e+03,1.798978e+03
1.949682e+03,1.780260e+03
1.960288e+03,1.768357e+03
1.970895e+03,1.761474e+03
1.981501e+03,1.729215e+03
1.992108e+03,1.705436e+03
2.002714e+03,1.682409e+03
2.013321e+03,1.687699e+03
2.023927e+03,1.661580e+03
2.034534e+03,1.643056e+03
2.045141e+03,1.631109e+03
2.055747e+03,1.601731e+03
2.066354e+03,1.579284e+03
2.076960e+03,1.591091e+03
2.087567e+03,1.555132e+03
2.098173e+03,1.526639e+03
2.108780e+03,1.530548e+03
2.119387e+03,1.502010e+03
2.129993e+03,1.495469e+03
2.140600e+03,1.467109e+03
2.151206e+03,1.457445e+03
2.161813e+03,1.425071e+03
2.172419e+03,1.443672e+03
2.183026e+03,1.413431e+03
2.193633e+03,1.399864e+03
2.204239e+03,1.377926e+03
2.214846e+03,1.374379e+03
2.225452e+03,1.343572e+03
2.236059e+03,1.328104e+03
2.246666e+03,1.312016e+03
2.257272e+03,1.301516e+03
2.267879e+03,1.281141e+03
2.278485e+03,1.278324e+03
2.289092e+03,1.247920e+03
2.299698e+03,1.257011e+03
2.310305e+03,1.228008e+03
2.320911e+03,1.206312e+03
2.331518e+03,1.200099e+03
2.342125e+03,1.176035e+03
2.352731e+03,1.173611e+03
2.363338e+03,1.166024e+03
2.373944e+03,1.156794e+03
2.384551e+03,1.146520e+03
2.395157e+03,1.130248e+03
2.405764e+03,1.120933e+03
2.416370e+03,1.097019e+03
2.426977e+03,1.085181e+03
2.437584e+03,1.052217e+03
2.448190e+03,1.070138e+03
2.458797e+03,1.051805e+03
2.469403e+03,1.047556e+03
2.480010e+03,1.040152e+03
2.490616e+03,1.008692e+03
2.501223e+03,9.940585e+02
2.511830e+03,1.009260e+03
2.522436e+03,9.837009e+02
2.533043e+03,9.776252e+02
2.543649e+03,9.727011e+02
2.554256e+03,9.694132e+02
2.564863e+03,9.523073e+02
2.575469e+03,9.430555e+02
2.586075e+03,9.297344e+02
2.596682e+03,9.237506e+02
2.607289e+03,9.308824e+02
2.617895e+03,9.056651e+02
2.628502e+03,8.992466e+02
2.639108e+03,9.042938e+02
2.649715e+03,8.761496e+02
2.660322e+03,8.739774e+02
2.670928e+03,8.603052e+02
2.681535e+03,8.662691e+02
2.692141e+03,8.346732e+02
2.702748e+03,8.450891e+02
2.713354e+03,8.427267e+02
2.723961e+03,8.294672e+02
2.734568e+03,8.277209e+02
2.745174e+03,8.114987e+02
2.755781e+03,8.186020e+02
2.766387e+03,8.000554e+02
2.776994e+03,7.978848e+02
2.787600e+03,7.861513e+02
2.798207e+03,7.859775e+02
2.808813e+03,7.797205e+02
2.819420e+03,7.977262e+02
2.830027e+03,7.798510e+02
2.840633e+03,7.562442e+02
2.851240e+03,7.861643e+02
2.861846e+03,7.658454e+02
2.872453e+03,7.718732e+02
2.883059e+03,7.818704e+02
2.893666e+03,7.682775e+02
2.904273e+03,7.592372e+02
2.914879e+03,7.684485e+02
2.925486e+03,7.351338e+02
2.936092e+03,7.459051e+02
2.946699e+03,7.120586e+02
2.957305e+03,7.599180e+02
2.967912e+03,7.033412e+02
2.978519e+03,7.183954e+02
2.989125e+03,6.756940e+02
2.999732e+03,6.674106e+02
3.010338e+03,6.866700e+02
3.020945e+03,6.875315e+02
3.031552e+03,6.632538e+02
3.042158e+03,6.751003e+02
3.052764e+03,6.787068e+02
3.063371e+03,6.384573e+02
3.073978e+03,6.855140e+02
3.084584e+03,6.720928e+02
3.095191e+03,6.852225e+02
3.105797e+03,6.612135e+02
3.116404e+03,6.918093e+02
3.127010e+03,6.546190e+02
3.137617e+03,6.804377e+02
3.148224e+03,6.585378e+02
3.158830e+03,6.452156e+02
3.169437e+03,6.658952e+02
3.180043e+03,6.674494e+02
3.190650e+03,6.985974e+02
3.200292e+03,6.964701e+02

File: black fibre2.CSV
1.995979e+02,3.113668e+03
2.102045e+02,3.123209e+03
2.208110e+02,3.137477e+03
2.314176e+02,3.151750e+03
2.420242e+02,3.165918e+03
2.526307e+02,3.178848e+03
2.632373e+02,3.184819e+03
2.738439e+02,3.194303e+03
2.844504e+02,3.213824e+03
2.950570e+02,3.207412e+03
3.056636e+02,3.203198e+03
3.162701e+02,3.226619e+03
3.268767e+02,3.240109e+03
3.374833e+02,3.229068e+03
3.480898e+02,3.227547e+03
3.586964e+02,3.248147e+03
3.693030e+02,3.245428e+03
3.799095e+02,3.245724e+03
3.905161e+02,3.237764e+03
4.011227e+02,3.231695e+03
4.117292e+02,3.233059e+03
4.223358e+02,3.228577e+03
4.329424e+02,3.237156e+03
4.435490e+02,3.236535e+03
4.541555e+02,3.237014e+03
4.647621e+02,3.213070e+03
4.753687e+02,3.202005e+03
4.859752e+02,3.223038e+03
4.965818e+02,3.200877e+03
5.071884e+02,3.187504e+03
5.177949e+02,3.209119e+03
5.284015e+02,3.166639e+03
5.390081e+02,3.155022e+03
5.496146e+02,3.140393e+03
5.602212e+02,3.149710e+03
5.708278e+02,3.128628e+03
5.814343e+02,3.127159e+03
5.920409e+02,3.117644e+03
6.026475e+02,3.099216e+03
6.132540e+02,3.092439e+03
6.238606e+02,3.079198e+03
6.344672e+02,3.062702e+03
6.450737e+02,3.039425e+03
6.556803e+02,3.040229e+03
6.662869e+02,3.019133e+03
6.768934e+02,3.005197e+03
6.875000e+02,3.008285e+03
6.981066e+02,2.984848e+03
7.087131e+02,2.953364e+03
7.193197e+02,2.950026e+03
7.299263e+02,2.951154e+03
7.405328e+02,2.920825e+03
7.511394e+02,2.896465e+03
7.617460e+02,2.911697e+03
7.723525e+02,2.873496e+03
7.829591e+02,2.838500e+03
7.935657e+02,2.848304e+03
8.041722e+02,2.831704e+03
8.147788e+02,2.819711e+03
8.253854e+02,2.788310e+03
8.359919e+02,2.789070e+03
8.465985e+02,2.741040e+03
8.572051e+02,2.750974e+03
8.678116e+02,2.735075e+03
8.784182e+02,2.714228e+03
8.890248e+02,2.700829e+03
8.996313e+02,2.691474e+03
9.102379e+02,2.674826e+03
9.208445e+02,2.636038e+03
9.314510e+02,2.637810e+03
9.420576e+02,2.593094e+03
9.526642e+02,2.600860e+03
9.632708e+02,2.587333e+03
9.738773e+02,2.566507e+03
9.844839e+02,2.548752e+03
9.950905e+02,2.543121e+03
1.005697e+03,2.500516e+03
1.016304e+03,2.512474e+03
1.026910e+03,2.476735e+03
1.037517e+03,2.471144e+03
1.048123e+03,2.454578e+03
1.058730e+03,2.454391e+03
1.069336e+03,2.437934e+03
1.079943e+03,2.413015e+03
1.090550e+03,2.433633e+03
1.101156e+03,2.390011e+03
1.111763e+03,2.387781e+03
1.122369e+03,2.398663e+03
1.132976e+03,2.367171e+03
1.143582e+03,2.331329e+03
1.154189e+03,2.330859e+03
1.164796e+03,2.295523e+03
1.175402e+03,2.273257e+03
1.186009e+03,2.257782e+03
1.196615e+03,2.251082e+03
1.207222e+03,2.233712e+03
1.217828e+03,2.222591e+03
1.228435e+03,2.209919e+03
1.239042e+03,2.203223e+03
1.249648e+03,2.173604e+03
1.260255e+03,2.176473e+03
1.270861e+03,2.168175e+03
1.281468e+03,2.166748e+03
1.292074e+03,2.146511e+03
1.302681e+03,2.117588e+03
1.313287e+03,2.098316e+03
1.323894e+03,2.098555e+03
1.334501e+03,2.107157e+03
1.345107e+03,2.087967e+03
1.355714e+03,2.068520e+03
1.366320e+03,2.063690e+03
1.376927e+03,2.051129e+03
1.387533e+03,2.027178e+03
1.398140e+03,2.014535e+03
1.408747e+03,1.999223e+03
1.419353e+03,1.984861e+03
1.429960e+03,1.970506e+03
1.440566e+03,1.935941e+03
1.451173e+03,1.925589e+03
1.461779e+03,1.923096e+03
1.472386e+03,1.911263e+03
1.482993e+03,1.894136e+03
1.493599e+03,1.890772e+03
1.504206e+03,1.876593e+03
1.514812e+03,1.850461e+03
1.525419e+03,1.844616e+03
1.536025e+03,1.838857e+03
1.546632e+03,1.822927e+03
1.557239e+03,1.805469e+03
1.567845e+03,1.808036e+03
1.578452e+03,1.811613e+03
1.589058e+03,1.794760e+03
1.599665e+03,1.768008e+03
1.610271e+03,1.755396e+03
1.620878e+03,1.730683e+03
1.631484e+03,1.720730e+03
1.642091e+03,1.709045e+03
1.652698e+03,1.705695e+03
1.663304e+03,1.686281e+03
1.673911e+03,1.681364e+03
1.684517e+03,1.642103e+03
1.695124e+03,1.653452e+03
1.705730e+03,1.631965e+03
1.716337e+03,1.612956e+03
1.726944e+03,1.592393e+03
1.737550e+03,1.595315e+03
1.748157e+03,1.582070e+03
1.758763e+03,1.566690e+03
1.769370e+03,1.568307e+03
1.779976e+03,1.546604e+03
1.790583e+03,1.519931e+03
1.801190e+03,1.523861e+03
1.811796e+03,1.512034e+03
1.822403e+03,1.496935e+03
1.833009e+03,1.492156e+03
1.843616e+03,1.469702e+03
1.854222e+03,1.453889e+03
1.864829e+03,1.433434e+03
1.875436e+03,1.430166e+03
1.886042e+03,1.412182e+03
1.896649e+03,1.402303e+03
1.907255e+03,1.394257e+03
1.917862e+03,1.358556e+03
1.928468e+03,1.361510e+03
1.939075e+03,1.344659e+03
1.949682e+03,1.340036e+03
1.960288e+03,1.332806e+03
1.970895e+03,1.304860e+03
1.981501e+03,1.298351e+03
1.992108e+03,1.279516e+03
2.002714e+03,1.272864e+03
2.013321e+03,1.255488e+03
2.023927e+03,1.250642e+03
2.034534e+03,1.230002e+03
2.045141e+03,1.223460e+03
2.055747e+03,1.205201e+03
2.066354e+03,1.192193e+03
2.076960e+03,1.184569e+03
2.087567e+03,1.180831e+03
2.098173e+03,1.144951e+03
2.108780e+03,1.153781e+03
2.119387e+03,1.131480e+03
2.129993e+03,1.114017e+03
2.140600e+03,1.103261e+03
2.151206e+03,1.086946e+03
2.161813e+03,1.084680e+03
2.172419e+03,1.065176e+03
2.183026e+03,1.055326e+03
2.193633e+03,1.041900e+03
2.204239e+03,1.037217e+03
2.214846e+03,1.015735e+03
2.225452e+03,9.936572e+02
2.236059e+03,9.928121e+02
2.246666e+03,9.820928e+02
2.257272e+03,9.716408e+02
2.267879e+03,9.627687e+02
2.278485e+03,9.476671e+02
2.289092e+03,9.335079e+02
2.299698e+03,9.258992e+02
2.310305e+03,9.278202e+02
2.320911e+03,9.151359e+02
2.331518e+03,9.093976e+02
2.342125e+03,8.928300e+02
2.352731e+03,8.707169e+02
2.363338e+03,8.557748e+02
2.373944e+03,8.563543e+02
2.384551e+03,8.484081e+02
2.395157e+03,8.405201e+02
2.405764e+03,8.254750e+02
2.416370e+03,8.204985e+02
2.426977e+03,8.034315e+02
2.437584e+03,8.020970e+02
2.448190e+03,7.917108e+02
2.458797e+03,7.707156e+02
2.469403e+03,7.772980e+02
2.480010e+03,7.781132e+02
2.490616e+03,7.627121e+02
2.501223e+03,7.553167e+02
2.511830e+03,7.466851e+02
2.522436e+03,7.418958e+02
2.533043e+03,7.294238e+02
2.543649e+03,7.259898e+02
2.554256e+03,7.187077e+02
2.564863e+03,7.116098e+02
2.575469e+03,6.988773e+02
2.586075e+03,6.956775e+02
2.596682e+03,6.864589e+02
2.607289e+03,6.866353e+02
2.617895e+03,6.656940e+02
2.628502e+03,6.605333e+02
2.639108e+03,6.570100e+02
2.649715e+03,6.539082e+02
2.660322e+03,6.487047e+02
2.670928e+03,6.535748e+02
2.681535e+03,6.435861e+02
2.692141e+03,6.306817e+02
2.702748e+03,6.256737e+02
2.713354e+03,6.312147e+02
2.723961e+03,6.197558e+02
2.734568e+03,6.142318e+02
2.745174e+03,6.158954e+02
2.755781e+03,6.080515e+02
2.766387e+03,6.098699e+02
2.776994e+03,5.805980e+02
2.787600e+03,5.957034e+02
2.798207e+03,5.848740e+02
2.808813e+03,5.673492e+02
2.819420e+03,5.852582e+02
2.830027e+03,5.704606e+02
2.840633e+03,5.823329e+02
2.851240e+03,5.714843e+02
2.861846e+03,6.042521e+02
2.872453e+03,5.830303e+02
2.883059e+03,5.968419e+02
2.893666e+03,6.138283e+02
2.904273e+03,6.027530e+02
2.914879e+03,5.878829e+02
2.925486e+03,5.571004e+02
2.936092e+03,5.541984e+02
2.946699e+03,5.524886e+02
2.957305e+03,5.736674e+02
2.967912e+03,5.356052e+02
2.978519e+03,5.239471e+02
2.989125e+03,4.928858e+02
2.999732e+03,5.156824e+02
3.010338e+03,5.217012e+02
3.020945e+03,5.000023e+02
3.031552e+03,4.934784e+02
3.042158e+03,4.942041e+02
3.052764e+03,5.050283e+02
3.063371e+03,4.879832e+02
3.073978e+03,4.925906e+02
3.084584e+03,5.020080e+02
3.095191e+03,5.114599e+02
3.105797e+03,4.842437e+02
3.116404e+03,5.072322e+02
3.127010e+03,4.757190e+02
3.137617e+03,4.926261e+02
3.148224e+03,4.563250e+02
3.158830e+03,4.840789e+02
3.169437e+03,4.874865e+02
3.180043e+03,4.852185e+02
3.190650e+03,4.849336e+02
3.200292e+03,5.027825e+02

File: black fibre3.CSV
1.995979e+02,1.026432e+04
2.102045e+02,1.036013e+04
2.208110e+02,1.052872e+04
2.314176e+02,1.067503e+04
2.420242e+02,1.076115e+04
2.526307e+02,1.094704e+04
2.632373e+02,1.105562e+04
2.738439e+02,1.115154e+04
2.844504e+02,1.128402e+04
2.950570e+02,1.137532e+04
3.056636e+02,1.147431e+04
3.162701e+02,1.159601e+04
3.268767e+02,1.171076e+04
3.374833e+02,1.180645e+04
3.480898e+02,1.195068e+04
3.586964e+02,1.206371e+04
3.693030e+02,1.216473e+04
3.799095e+02,1.228242e+04
3.905161e+02,1.237428e+04
4.011227e+02,1.243199e+04
4.117292e+02,1.255884e+04
4.223358e+02,1.262328e+04
4.329424e+02,1.266212e+04
4.435490e+02,1.275100e+04
4.541555e+02,1.284384e+04
4.647621e+02,1.291040e+04
4.753687e+02,1.293940e+04
4.859752e+02,1.303736e+04
4.965818e+02,1.309168e+04
5.071884e+02,1.318566e+04
5.177949e+02,1.325831e+04
5.284015e+02,1.330998e+04
5.390081e+02,1.347386e+04
5.496146e+02,1.365459e+04
5.602212e+02,1.377864e+04
5.708278e+02,1.353469e+04
5.814343e+02,1.353956e+04
5.920409e+02,1.363515e+04
6.026475e+02,1.366392e+04
6.132540e+02,1.383928e+04
6.238606e+02,1.367553e+04
6.344672e+02,1.364492e+04
6.450737e+02,1.364708e+04
6.556803e+02,1.368158e+04
6.662869e+02,1.366366e+04
6.768934e+02,1.367682e+04
6.875000e+02,1.367814e+04
6.981066e+02,1.362358e+04
7.087131e+02,1.364804e+04
7.193197e+02,1.361580e+04
7.299263e+02,1.356953e+04
7.405328e+02,1.356319e+04
7.511394e+02,1.353547e+04
7.617460e+02,1.359679e+04
7.723525e+02,1.353778e+04
7.829591e+02,1.363209e+04
7.935657e+02,1.361021e+04
8.041722e+02,1.341939e+04
8.147788e+02,1.337099e+04
8.253854e+02,1.334638e+04
8.359919e+02,1.333378e+04
8.465985e+02,1.324722e+04
8.572051e+02,1.323616e+04
8.678116e+02,1.318100e+04
8.784182e+02,1.310226e+04
8.890248e+02,1.305957e+04
8.996313e+02,1.302926e+04
9.102379e+02,1.293850e+04
9.208445e+02,1.282514e+04
9.314510e+02,1.281390e+04
9.420576e+02,1.275829e+04
9.526642e+02,1.267108e+04
9.632708e+02,1.264444e+04
9.738773e+02,1.249328e+04
9.844839e+02,1.238195e+04
9.950905e+02,1.240108e+04
1.005697e+03,1.230354e+04
1.016304e+03,1.224285e+04
1.026910e+03,1.218042e+04
1.037517e+03,1.213293e+04
1.048123e+03,1.200918e+04
1.058730e+03,1.197491e+04
1.069336e+03,1.200300e+04
1.079943e+03,1.195571e+04
1.090550e+03,1.186569e+04
1.101156e+03,1.171417e+04
1.111763e+03,1.163390e+04
1.122369e+03,1.158177e+04
1.132976e+03,1.150258e+04
1.143582e+03,1.143090e+04
1.154189e+03,1.132814e+04
1.164796e+03,1.127752e+04
1.175402e+03,1.120026e+04
1.186009e+03,1.115048e+04
1.196615e+03,1.113692e+04
1.207222e+03,1.094196e+04
1.217828e+03,1.090312e+04
1.228435e+03,1.085356e+04
1.239042e+03,1.077976e+04
1.249648e+03,1.065094e+04
1.260255e+03,1.057017e+04
1.270861e+03,1.049217e+04
1.281468e+03,1.037623e+04
1.292074e+03,1.034906e+04
1.302681e+03,1.027658e+04
1.313287e+03,1.023396e+04
1.323894e+03,1.017503e+04
1.334501e+03,1.012037e+04
1.345107e+03,9.994204e+03
1.355714e+03,9.944479e+03
1.366320e+03,9.908504e+03
1.376927e+03,9.755608e+03
1.387533e+03,9.737860e+03
1.398140e+03,9.687587e+03
1.408747e+03,9.572828e+03
1.419353e+03,9.530627e+03
1.429960e+03,9.462588e+03
1.440566e+03,9.418594e+03
1.451173e+03,9.420694e+03
1.461779e+03,9.323589e+03
1.472386e+03,9.208004e+03
1.482993e+03,9.174343e+03
1.493599e+03,9.100767e+03
1.504206e+03,9.107909e+03
1.514812e+03,9.056458e+03
1.525419e+03,8.961941e+03
1.536025e+03,8.842967e+03
1.546632e+03,8.805871e+03
1.557239e+03,8.801775e+03
1.567845e+03,8.985522e+03
1.578452e+03,8.868712e+03
1.589058e+03,8.645118e+03
1.599665e+03,8.557393e+03
1.610271e+03,8.467088e+03
1.620878e+03,8.400624e+03
1.631484e+03,8.403013e+03
1.642091e+03,8.269534e+03
1.652698e+03,8.193388e+03
1.663304e+03,8.107009e+03
1.673911e+03,8.135889e+03
1.684517e+03,8.020122e+03
1.695124e+03,7.908591e+03
1.705730e+03,7.880542e+03
1.716337e+03,7.802369e+03
1.726944e+03,7.762818e+03
1.737550e+03,7.689317e+03
1.748157e+03,7.631560e+03
1.758763e+03,7.537986e+03
1.769370e+03,7.495242e+03
1.779976e+03,7.460959e+03
1.790583e+03,7.361422e+03
1.801190e+03,7.350781e+03
1.811796e+03,7.291364e+03
1.822403e+03,7.234930e+03
1.833009e+03,7.167423e+03
1.843616e+03,7.140307e+03
1.854222e+03,7.037037e+03
1.864829e+03,6.985761e+03
1.875436e+03,6.984663e+03
1.886042e+03,6.886993e+03
1.896649e+03,6.792010e+03
1.907255e+03,6.734564e+03
1.917862e+03,6.680649e+03
1.928468e+03,6.650750e+03
1.939075e+03,6.606240e+03
1.949682e+03,6.502472e+03
1.960288e+03,6.460630e+03
1.970895e+03,6.429386e+03
1.981501e+03,6.333532e+03
1.992108e+03,6.274174e+03
2.002714e+03,6.230851e+03
2.013321e+03,6.130151e+03
2.023927e+03,6.067489e+03
2.034534e+03,6.026577e+03
2.045141e+03,5.950581e+03
2.055747e+03,5.893880e+03
2.066354e+03,5.856692e+03
2.076960e+03,5.792338e+03
2.087567e+03,5.747691e+03
2.098173e+03,5.654115e+03
2.108780e+03,5.617290e+03
2.119387e+03,5.534925e+03
2.129993e+03,5.472485e+03
2.140600e+03,5.435924e+03
2.151206e+03,5.388524e+03
2.161813e+03,5.348181e+03
2.172419e+03,5.255873e+03
2.183026e+03,5.163061e+03
2.193633e+03,5.103331e+03
2.204239e+03,5.083884e+03
2.214846e+03,5.026934e+03
2.225452e+03,4.954846e+03
2.236059e+03,4.917297e+03
2.246666e+03,4.847450e+03
2.257272e+03,4.774035e+03
2.267879e+03,4.732304e+03
2.278485e+03,4.653438e+03
2.289092e+03,4.613067e+03
2.299698e+03,4.583251e+03
2.310305e+03,4.508853e+03
2.320911e+03,4.441712e+03
2.331518e+03,4.412751e+03
2.342125e+03,4.333451e+03
2.352731e+03,4.286164e+03
2.363338e+03,4.303399e+03
2.373944e+03,4.228268e+03
2.384551e+03,4.130867e+03
2.395157e+03,4.120437e+03
2.405764e+03,4.043730e+03
2.416370e+03,3.992580e+03
2.426977e+03,3.914381e+03
2.437584e+03,3.928142e+03
2.448190e+03,3.863408e+03
2.458797e+03,3.801984e+03
2.469403e+03,3.757516e+03
2.480010e+03,3.716996e+03
2.490616e+03,3.685641e+03
2.501223e+03,3.640461e+03
2.511830e+03,3.617869e+03
2.522436e+03,3.550620e+03
2.533043e+03,3.521985e+03
2.543649e+03,3.477129e+03
2.554256e+03,3.458450e+03
2.564863e+03,3.426800e+03
2.575469e+03,3.382903e+03
2.586075e+03,3.329940e+03
2.596682e+03,3.310420e+03
2.607289e+03,3.270698e+03
2.617895e+03,3.202430e+03
2.628502e+03,3.163633e+03
2.639108e+03,3.166462e+03
2.649715e+03,3.127452e+03
2.660322e+03,3.078905e+03
2.670928e+03,3.040489e+03
2.681535e+03,3.051865e+03
2.692141e+03,3.004333e+03
2.702748e+03,2.998695e+03
2.713354e+03,2.937250e+03
2.723961e+03,2.889207e+03
2.734568e+03,2.912035e+03
2.745174e+03,2.861136e+03
2.755781e+03,2.816135e+03
2.766387e+03,2.794391e+03
2.776994e+03,2.796539e+03
2.787600e+03,2.725793e+03
2.798207e+03,2.730654e+03
2.808813e+03,2.691620e+03
2.819420e+03,2.675116e+03
2.830027e+03,2.634641e+03
2.840633e+03,2.599617e+03
2.851240e+03,2.574816e+03
2.861846e+03,2.601153e+03
2.872453e+03,2.543134e+03
2.883059e+03,2.538418e+03
2.893666e+03,2.568006e+03
2.904273e+03,2.492563e+03
2.914879e+03,2.447126e+03
2.925486e+03,2.413907e+03
2.936092e+03,2.410517e+03
2.946699e+03,2.436343e+03
2.957305e+03,2.427504e+03
2.967912e+03,2.347209e+03
2.978519e+03,2.352827e+03
2.989125e+03,2.239600e+03
2.999732e+03,2.315842e+03
3.010338e+03,2.322503e+03
3.020945e+03,2.314496e+03
3.031552e+03,2.234140e+03
3.042158e+03,2.191250e+03
3.052764e+03,2.213213e+03
3.063371e+03,2.233939e+03
3.073978e+03,2.218380e+03
3.084584e+03,2.210155e+03
3.095191e+03,2.235880e+03
3.105797e+03,2.144455e+03
3.116404e+03,2.206390e+03
3.127010e+03,2.167632e+03
3.137617e+03,2.160005e+03
3.148224e+03,2.183504e+03
3.158830e+03,2.162885e+03
3.169437e+03,2.151265e+03
3.180043e+03,2.152856e+03
3.190650e+03,2.175233e+03
3.200292e+03,2.200102e+03