Folder: Taff_Bargoed_microplastics_data/RAMAN_data/20012023_r1 (part 7)

File: blue fibre12.CSV
1.995979e+02,2.236085e+03
2.102045e+02,2.234593e+03
2.208110e+02,2.251438e+03
2.314176e+02,2.247546e+03
2.420242e+02,2.247884e+03
2.526307e+02,2.236864e+03
2.632373e+02,2.247159e+03
2.738439e+02,2.248231e+03
2.844504e+02,2.264636e+03
2.950570e+02,2.253279e+03
3.056636e+02,2.243278e+03
3.162701e+02,2.260444e+03
3.268767e+02,2.260380e+03
3.374833e+02,2.254013e+03
3.480898e+02,2.255591e+03
3.586964e+02,2.276298e+03
3.693030e+02,2.259732e+03
3.799095e+02,2.276845e+03
3.905161e+02,2.240449e+03
4.011227e+02,2.243604e+03
4.117292e+02,2.224165e+03
4.223358e+02,2.229640e+03
4.329424e+02,2.227756e+03
4.435490e+02,2.216230e+03
4.541555e+02,2.222120e+03
4.647621e+02,2.190087e+03
4.753687e+02,2.198103e+03
4.859752e+02,2.160628e+03
4.965818e+02,2.169818e+03
5.071884e+02,2.162919e+03
5.177949e+02,2.172292e+03
5.284015e+02,2.148837e+03
5.390081e+02,2.127613e+03
5.496146e+02,2.125243e+03
5.602212e+02,2.122622e+03
5.708278e+02,2.099808e+03
5.814343e+02,2.103401e+03
5.920409e+02,2.101159e+03
6.026475e+02,2.068385e+03
6.132540e+02,2.073739e+03
6.238606e+02,2.054675e+03
6.344672e+02,2.054598e+03
6.450737e+02,2.042081e+03
6.556803e+02,2.019048e+03
6.662869e+02,2.004146e+03
6.768934e+02,2.006284e+03
6.875000e+02,1.995115e+03
6.981066e+02,1.972883e+03
7.087131e+02,1.971371e+03
7.193197e+02,1.960427e+03
7.299263e+02,1.937760e+03
7.405328e+02,1.920781e+03
7.511394e+02,1.911048e+03
7.617460e+02,1.903164e+03
7.723525e+02,1.883385e+03
7.829591e+02,1.873044e+03
7.935657e+02,1.850780e+03
8.041722e+02,1.840835e+03
8.147788e+02,1.844594e+03
8.253854e+02,1.825432e+03
8.359919e+02,1.815602e+03
8.465985e+02,1.796489e+03
8.572051e+02,1.779566e+03
8.678116e+02,1.771897e+03
8.784182e+02,1.771889e+03
8.890248e+02,1.752714e+03
8.996313e+02,1.749042e+03
9.102379e+02,1.744515e+03
9.208445e+02,1.717119e+03
9.314510e+02,1.714126e+03
9.420576e+02,1.675023e+03
9.526642e+02,1.675501e+03
9.632708e+02,1.677569e+03
9.738773e+02,1.648723e+03
9.844839e+02,1.636193e+03
9.950905e+02,1.636133e+03
1.005697e+03,1.617063e+03
1.016304e+03,1.592447e+03
1.026910e+03,1.592337e+03
1.037517e+03,1.598679e+03
1.048123e+03,1.582907e+03
1.058730e+03,1.566634e+03
1.069336e+03,1.568602e+03
1.079943e+03,1.548627e+03
1.090550e+03,1.580990e+03
1.101156e+03,1.539982e+03
1.111763e+03,1.527314e+03
1.122369e+03,1.530042e+03
1.132976e+03,1.508774e+03
1.143582e+03,1.478197e+03
1.154189e+03,1.471062e+03
1.164796e+03,1.455281e+03
1.175402e+03,1.439508e+03
1.186009e+03,1.432647e+03
1.196615e+03,1.423143e+03
1.207222e+03,1.412155e+03
1.217828e+03,1.393708e+03
1.228435e+03,1.402313e+03
1.239042e+03,1.400226e+03
1.249648e+03,1.386920e+03
1.260255e+03,1.375556e+03
1.270861e+03,1.380350e+03
1.281468e+03,1.349647e+03
1.292074e+03,1.356016e+03
1.302681e+03,1.334510e+03
1.313287e+03,1.328692e+03
1.323894e+03,1.325711e+03
1.334501e+03,1.332689e+03
1.345107e+03,1.316954e+03
1.355714e+03,1.295793e+03
1.366320e+03,1.304537e+03
1.376927e+03,1.291979e+03
1.387533e+03,1.277141e+03
1.398140e+03,1.270794e+03
1.408747e+03,1.253191e+03
1.419353e+03,1.255500e+03
1.429960e+03,1.233383e+03
1.440566e+03,1.229489e+03
1.451173e+03,1.220631e+03
1.461779e+03,1.211740e+03
1.472386e+03,1.203178e+03
1.482993e+03,1.191100e+03
1.493599e+03,1.173421e+03
1.504206e+03,1.173652e+03
1.514812e+03,1.153211e+03
1.525419e+03,1.154784e+03
1.536025e+03,1.150831e+03
1.546632e+03,1.139098e+03
1.557239e+03,1.132454e+03
1.567845e+03,1.119081e+03
1.578452e+03,1.112851e+03
1.589058e+03,1.105018e+03
1.599665e+03,1.097513e+03
1.610271e+03,1.082847e+03
1.620878e+03,1.078493e+03
1.631484e+03,1.069087e+03
1.642091e+03,1.058084e+03
1.652698e+03,1.040791e+03
1.663304e+03,1.032523e+03
1.673911e+03,1.033533e+03
1.684517e+03,1.025506e+03
1.695124e+03,1.015413e+03
1.705730e+03,1.011529e+03
1.716337e+03,9.841985e+02
1.726944e+03,9.919821e+02
1.737550e+03,9.747055e+02
1.748157e+03,9.680236e+02
1.758763e+03,9.605780e+02
1.769370e+03,9.561148e+02
1.779976e+03,9.404066e+02
1.790583e+03,9.370341e+02
1.801190e+03,9.201111e+02
1.811796e+03,9.064107e+02
1.822403e+03,9.133611e+02
1.833009e+03,8.847998e+02
1.843616e+03,8.984835e+02
1.854222e+03,8.783977e+02
1.864829e+03,8.616833e+02
1.875436e+03,8.701143e+02
1.886042e+03,8.485687e+02
1.896649e+03,8.470794e+02
1.907255e+03,8.309564e+02
1.917862e+03,8.248631e+02
1.928468e+03,8.196976e+02
1.939075e+03,8.052093e+02
1.949682e+03,8.110413e+02
1.960288e+03,7.916002e+02
1.970895e+03,7.797953e+02
1.981501e+03,7.861536e+02
1.992108e+03,7.796465e+02
2.002714e+03,7.575889e+02
2.013321e+03,7.462820e+02
2.023927e+03,7.437979e+02
2.034534e+03,7.323235e+02
2.045141e+03,7.234843e+02
2.055747e+03,7.107845e+02
2.066354e+03,7.107982e+02
2.076960e+03,6.847394e+02
2.087567e+03,6.881743e+02
2.098173e+03,6.843121e+02
2.108780e+03,6.857873e+02
2.119387e+03,6.655236e+02
2.129993e+03,6.549218e+02
2.140600e+03,6.520359e+02
2.151206e+03,6.415491e+02
2.161813e+03,6.380654e+02
2.172419e+03,6.298926e+02
2.183026e+03,6.114542e+02
2.193633e+03,6.040565e+02
2.204239e+03,6.048611e+02
2.214846e+03,5.999368e+02
2.225452e+03,5.870334e+02
2.236059e+03,5.915285e+02
2.246666e+03,5.813764e+02
2.257272e+03,5.637694e+02
2.267879e+03,5.543608e+02
2.278485e+03,5.515848e+02
2.289092e+03,5.558160e+02
2.299698e+03,5.410930e+02
2.310305e+03,5.345666e+02
2.320911e+03,5.364197e+02
2.331518e+03,5.213817e+02
2.342125e+03,5.192162e+02
2.352731e+03,5.159148e+02
2.363338e+03,5.014943e+02
2.373944e+03,4.941430e+02
2.384551e+03,4.970729e+02
2.395157e+03,4.899134e+02
2.405764e+03,4.851348e+02
2.416370e+03,4.670163e+02
2.426977e+03,4.728051e+02
2.437584e+03,4.667675e+02
2.448190e+03,4.681166e+02
2.458797e+03,4.537635e+02
2.469403e+03,4.474479e+02
2.480010e+03,4.478123e+02
2.490616e+03,4.508329e+02
2.501223e+03,4.344428e+02
2.511830e+03,4.499272e+02
2.522436e+03,4.284056e+02
2.533043e+03,4.257906e+02
2.543649e+03,4.192026e+02
2.554256e+03,4.288662e+02
2.564863e+03,4.067941e+02
2.575469e+03,4.238741e+02
2.586075e+03,3.983720e+02
2.596682e+03,3.952207e+02
2.607289e+03,3.942932e+02
2.617895e+03,3.870197e+02
2.628502e+03,3.875289e+02
2.639108e+03,3.914527e+02
2.649715e+03,3.803443e+02
2.660322e+03,3.768115e+02
2.670928e+03,3.853630e+02
2.681535e+03,3.717192e+02
2.692141e+03,3.679602e+02
2.702748e+03,3.612282e+02
2.713354e+03,3.760892e+02
2.723961e+03,3.787638e+02
2.734568e+03,3.663905e+02
2.745174e+03,3.697822e+02
2.755781e+03,3.484153e+02
2.766387e+03,3.467036e+02
2.776994e+03,3.461619e+02
2.787600e+03,3.433986e+02
2.798207e+03,3.478042e+02
2.808813e+03,3.446419e+02
2.819420e+03,3.345891e+02
2.830027e+03,3.355590e+02
2.840633e+03,3.355560e+02
2.851240e+03,3.459079e+02
2.861846e+03,3.460304e+02
2.872453e+03,3.549255e+02
2.883059e+03,3.636646e+02
2.893666e+03,3.592664e+02
2.904273e+03,3.640552e+02
2.914879e+03,3.701150e+02
2.925486e+03,3.478760e+02
2.936092e+03,3.386364e+02
2.946699e+03,3.445976e+02
2.957305e+03,3.700171e+02
2.967912e+03,3.276812e+02
2.978519e+03,3.293216e+02
2.989125e+03,3.057402e+02
2.999732e+03,2.864053e+02
3.010338e+03,3.028159e+02
3.020945e+03,2.890821e+02
3.031552e+03,2.920531e+02
3.042158e+03,2.907374e+02
3.052764e+03,2.993116e+02
3.063371e+03,3.041800e+02
3.073978e+03,3.043772e+02
3.084584e+03,2.862633e+02
3.095191e+03,3.184221e+02
3.105797e+03,2.892934e+02
3.116404e+03,2.918210e+02
3.127010e+03,2.921421e+02
3.137617e+03,3.393429e+02
3.148224e+03,2.943195e+02
3.158830e+03,3.170912e+02
3.169437e+03,2.851570e+02
3.180043e+03,3.198105e+02
3.190650e+03,2.805568e+02
3.200292e+03,3.358374e+02

File: blue fibre13.CSV
1.995979e+02,9.628316e+03
2.102045e+02,9.704514e+03
2.208110e+02,9.771550e+03
2.314176e+02,9.785431e+03
2.420242e+02,9.833413e+03
2.526307e+02,9.937575e+03
2.632373e+02,9.938326e+03
2.738439e+02,9.969338e+03
2.844504e+02,1.004978e+04
2.950570e+02,1.004385e+04
3.056636e+02,1.002256e+04
3.162701e+02,1.008113e+04
3.268767e+02,1.008635e+04
3.374833e+02,1.005786e+04
3.480898e+02,1.007889e+04
3.586964e+02,1.011464e+04
3.693030e+02,1.008536e+04
3.799095e+02,1.010983e+04
3.905161e+02,1.010183e+04
4.011227e+02,1.007508e+04
4.117292e+02,1.005708e+04
4.223358e+02,1.007279e+04
4.329424e+02,1.003212e+04
4.435490e+02,1.002644e+04
4.541555e+02,1.002418e+04
4.647621e+02,9.960376e+03
4.753687e+02,9.948959e+03
4.859752e+02,9.989987e+03
4.965818e+02,9.933100e+03
5.071884e+02,9.890330e+03
5.177949e+02,9.871333e+03
5.284015e+02,9.832941e+03
5.390081e+02,9.774606e+03
5.496146e+02,9.769513e+03
5.602212e+02,9.755696e+03
5.708278e+02,9.642472e+03
5.814343e+02,9.648513e+03
5.920409e+02,9.640096e+03
6.026475e+02,9.585350e+03
6.132540e+02,9.553981e+03
6.238606e+02,9.552452e+03
6.344672e+02,9.476484e+03
6.450737e+02,9.442146e+03
6.556803e+02,9.390596e+03
6.662869e+02,9.346423e+03
6.768934e+02,9.288691e+03
6.875000e+02,9.246838e+03
6.981066e+02,9.229034e+03
7.087131e+02,9.139240e+03
7.193197e+02,9.136574e+03
7.299263e+02,9.104589e+03
7.405328e+02,9.028853e+03
7.511394e+02,9.010013e+03
7.617460e+02,8.917071e+03
7.723525e+02,8.881787e+03
7.829591e+02,8.848154e+03
7.935657e+02,8.815328e+03
8.041722e+02,8.755464e+03
8.147788e+02,8.704818e+03
8.253854e+02,8.669995e+03
8.359919e+02,8.609319e+03
8.465985e+02,8.547518e+03
8.572051e+02,8.522729e+03
8.678116e+02,8.459204e+03
8.784182e+02,8.390843e+03
8.890248e+02,8.334645e+03
8.996313e+02,8.332824e+03
9.102379e+02,8.250466e+03
9.208445e+02,8.149142e+03
9.314510e+02,8.139396e+03
9.420576e+02,8.103032e+03
9.526642e+02,8.036567e+03
9.632708e+02,8.014819e+03
9.738773e+02,7.916621e+03
9.844839e+02,7.862136e+03
9.950905e+02,7.869736e+03
1.005697e+03,7.838591e+03
1.016304e+03,7.750870e+03
1.026910e+03,7.691284e+03
1.037517e+03,7.708177e+03
1.048123e+03,7.631403e+03
1.058730e+03,7.595258e+03
1.069336e+03,7.550267e+03
1.079943e+03,7.492705e+03
1.090550e+03,7.524280e+03
1.101156e+03,7.451646e+03
1.111763e+03,7.390228e+03
1.122369e+03,7.420695e+03
1.132976e+03,7.367723e+03
1.143582e+03,7.307087e+03
1.154189e+03,7.282002e+03
1.164796e+03,7.216061e+03
1.175402e+03,7.161313e+03
1.186009e+03,7.121029e+03
1.196615e+03,7.088773e+03
1.207222e+03,7.066550e+03
1.217828e+03,7.027792e+03
1.228435e+03,6.971034e+03
1.239042e+03,6.923767e+03
1.249648e+03,6.843881e+03
1.260255e+03,6.828817e+03
1.270861e+03,6.819169e+03
1.281468e+03,6.809971e+03
1.292074e+03,6.759706e+03
1.302681e+03,6.699049e+03
1.313287e+03,6.642019e+03
1.323894e+03,6.633639e+03
1.334501e+03,6.622146e+03
1.345107e+03,6.586502e+03
1.355714e+03,6.538038e+03
1.366320e+03,6.519127e+03
1.376927e+03,6.445963e+03
1.387533e+03,6.378333e+03
1.398140e+03,6.369817e+03
1.408747e+03,6.305764e+03
1.419353e+03,6.288867e+03
1.429960e+03,6.258837e+03
1.440566e+03,6.153634e+03
1.451173e+03,6.126555e+03
1.461779e+03,6.101897e+03
1.472386e+03,6.053296e+03
1.482993e+03,6.007785e+03
1.493599e+03,5.991487e+03
1.504206e+03,5.955407e+03
1.514812e+03,5.936322e+03
1.525419e+03,5.889884e+03
1.536025e+03,5.828675e+03
1.546632e+03,5.793799e+03
1.557239e+03,5.758297e+03
1.567845e+03,5.773157e+03
1.578452e+03,5.732478e+03
1.589058e+03,5.689317e+03
1.599665e+03,5.642354e+03
1.610271e+03,5.598750e+03
1.620878e+03,5.584263e+03
1.631484e+03,5.509055e+03
1.642091e+03,5.488110e+03
1.652698e+03,5.407031e+03
1.663304e+03,5.355825e+03
1.673911e+03,5.366007e+03
1.684517e+03,5.279421e+03
1.695124e+03,5.278158e+03
1.705730e+03,5.215268e+03
1.716337e+03,5.161680e+03
1.726944e+03,5.141575e+03
1.737550e+03,5.102696e+03
1.748157e+03,5.044449e+03
1.758763e+03,5.012464e+03
1.769370e+03,4.999170e+03
1.779976e+03,4.927960e+03
1.790583e+03,4.912869e+03
1.801190e+03,4.888182e+03
1.811796e+03,4.836386e+03
1.822403e+03,4.779289e+03
1.833009e+03,4.782896e+03
1.843616e+03,4.706287e+03
1.854222e+03,4.653576e+03
1.864829e+03,4.639732e+03
1.875436e+03,4.613726e+03
1.886042e+03,4.536674e+03
1.896649e+03,4.499722e+03
1.907255e+03,4.453627e+03
1.917862e+03,4.402037e+03
1.928468e+03,4.371631e+03
1.939075e+03,4.371380e+03
1.949682e+03,4.290839e+03
1.960288e+03,4.247697e+03
1.970895e+03,4.236646e+03
1.981501e+03,4.170338e+03
1.992108e+03,4.134113e+03
2.002714e+03,4.086495e+03
2.013321e+03,4.018733e+03
2.023927e+03,4.014069e+03
2.034534e+03,3.985457e+03
2.045141e+03,3.908326e+03
2.055747e+03,3.874346e+03
2.066354e+03,3.847804e+03
2.076960e+03,3.806987e+03
2.087567e+03,3.750271e+03
2.098173e+03,3.726719e+03
2.108780e+03,3.695092e+03
2.119387e+03,3.637445e+03
2.129993e+03,3.569060e+03
2.140600e+03,3.578926e+03
2.151206e+03,3.506718e+03
2.161813e+03,3.500110e+03
2.172419e+03,3.442783e+03
2.183026e+03,3.408813e+03
2.193633e+03,3.365567e+03
2.204239e+03,3.341263e+03
2.214846e+03,3.317625e+03
2.225452e+03,3.228302e+03
2.236059e+03,3.214875e+03
2.246666e+03,3.170873e+03
2.257272e+03,3.134087e+03
2.267879e+03,3.093873e+03
2.278485e+03,3.054983e+03
2.289092e+03,3.035862e+03
2.299698e+03,2.976076e+03
2.310305e+03,2.937596e+03
2.320911e+03,2.897962e+03
2.331518e+03,2.887812e+03
2.342125e+03,2.840423e+03
2.352731e+03,2.810576e+03
2.363338e+03,2.790053e+03
2.373944e+03,2.758412e+03
2.384551e+03,2.728480e+03
2.395157e+03,2.687638e+03
2.405764e+03,2.667860e+03
2.416370e+03,2.633269e+03
2.426977e+03,2.625208e+03
2.437584e+03,2.585105e+03
2.448190e+03,2.538679e+03
2.458797e+03,2.494448e+03
2.469403e+03,2.477890e+03
2.480010e+03,2.488973e+03
2.490616e+03,2.446971e+03
2.501223e+03,2.413108e+03
2.511830e+03,2.375794e+03
2.522436e+03,2.396404e+03
2.533043e+03,2.361932e+03
2.543649e+03,2.323650e+03
2.554256e+03,2.281063e+03
2.564863e+03,2.281286e+03
2.575469e+03,2.254958e+03
2.586075e+03,2.233419e+03
2.596682e+03,2.218096e+03
2.607289e+03,2.180623e+03
2.617895e+03,2.125626e+03
2.628502e+03,2.157730e+03
2.639108e+03,2.111950e+03
2.649715e+03,2.101067e+03
2.660322e+03,2.065656e+03
2.670928e+03,2.068181e+03
2.681535e+03,2.038729e+03
2.692141e+03,2.014805e+03
2.702748e+03,2.018368e+03
2.713354e+03,1.983002e+03
2.723961e+03,1.947413e+03
2.734568e+03,1.947770e+03
2.745174e+03,1.963510e+03
2.755781e+03,1.924436e+03
2.766387e+03,1.889202e+03
2.776994e+03,1.872811e+03
2.787600e+03,1.873659e+03
2.798207e+03,1.880032e+03
2.808813e+03,1.833156e+03
2.819420e+03,1.822260e+03
2.830027e+03,1.803093e+03
2.840633e+03,1.790893e+03
2.851240e+03,1.796948e+03
2.861846e+03,1.786822e+03
2.872453e+03,1.805964e+03
2.883059e+03,1.766224e+03
2.893666e+03,1.802500e+03
2.904273e+03,1.762506e+03
2.914879e+03,1.771095e+03
2.925486e+03,1.739707e+03
2.936092e+03,1.676909e+03
2.946699e+03,1.695893e+03
2.957305e+03,1.719715e+03
2.967912e+03,1.661744e+03
2.978519e+03,1.617717e+03
2.989125e+03,1.641831e+03
2.999732e+03,1.629961e+03
3.010338e+03,1.573830e+03
3.020945e+03,1.552971e+03
3.031552e+03,1.587376e+03
3.042158e+03,1.605359e+03
3.052764e+03,1.530567e+03
3.063371e+03,1.556941e+03
3.073978e+03,1.569583e+03
3.084584e+03,1.519269e+03
3.095191e+03,1.542247e+03
3.105797e+03,1.541000e+03
3.116404e+03,1.577092e+03
3.127010e+03,1.535289e+03
3.137617e+03,1.536197e+03
3.148224e+03,1.536420e+03
3.158830e+03,1.490674e+03
3.169437e+03,1.540263e+03
3.180043e+03,1.518793e+03
3.190650e+03,1.513489e+03
3.200292e+03,1.605389e+03

File: blue fibre14.CSV
1.995979e+02,3.251837e+03
2.102045e+02,3.249969e+03
2.208110e+02,3.268294e+03
2.314176e+02,3.280384e+03
2.420242e+02,3.267495e+03
2.526307e+02,3.294634e+03
2.632373e+02,3.307830e+03
2.738439e+02,3.314980e+03
2.844504e+02,3.336004e+03
2.950570e+02,3.313965e+03
3.056636e+02,3.309114e+03
3.162701e+02,3.314302e+03
3.268767e+02,3.329052e+03
3.374833e+02,3.312907e+03
3.480898e+02,3.328201e+03
3.586964e+02,3.338625e+03
3.693030e+02,3.339745e+03
3.799095e+02,3.343099e+03
3.905161e+02,3.323985e+03
4.011227e+02,3.314528e+03
4.117292e+02,3.325169e+03
4.223358e+02,3.311468e+03
4.329424e+02,3.322725e+03
4.435490e+02,3.301023e+03
4.541555e+02,3.313612e+03
4.647621e+02,3.287679e+03
4.753687e+02,3.272156e+03
4.859752e+02,3.269578e+03
4.965818e+02,3.270137e+03
5.071884e+02,3.260360e+03
5.177949e+02,3.250320e+03
5.284015e+02,3.224355e+03
5.390081e+02,3.207191e+03
5.496146e+02,3.195377e+03
5.602212e+02,3.177901e+03
5.708278e+02,3.175150e+03
5.814343e+02,3.167938e+03
5.920409e+02,3.164476e+03
6.026475e+02,3.140671e+03
6.132540e+02,3.130114e+03
6.238606e+02,3.112763e+03
6.344672e+02,3.096078e+03
6.450737e+02,3.102796e+03
6.556803e+02,3.074717e+03
6.662869e+02,3.057397e+03
6.768934e+02,3.034509e+03
6.875000e+02,3.033956e+03
6.981066e+02,2.995797e+03
7.087131e+02,2.990706e+03
7.193197e+02,2.966567e+03
7.299263e+02,2.971837e+03
7.405328e+02,2.954941e+03
7.511394e+02,2.929506e+03
7.617460e+02,2.918405e+03
7.723525e+02,2.891707e+03
7.829591e+02,2.885376e+03
7.935657e+02,2.866088e+03
8.041722e+02,2.844542e+03
8.147788e+02,2.839227e+03
8.253854e+02,2.830704e+03
8.359919e+02,2.818271e+03
8.465985e+02,2.787259e+03
8.572051e+02,2.777395e+03
8.678116e+02,2.763288e+03
8.784182e+02,2.765593e+03
8.890248e+02,2.745978e+03
8.996313e+02,2.731062e+03
9.102379e+02,2.704922e+03
9.208445e+02,2.673246e+03
9.314510e+02,2.660935e+03
9.420576e+02,2.651808e+03
9.526642e+02,2.626846e+03
9.632708e+02,2.603680e+03
9.738773e+02,2.582789e+03
9.844839e+02,2.588704e+03
9.950905e+02,2.581634e+03
1.005697e+03,2.550339e+03
1.016304e+03,2.520689e+03
1.026910e+03,2.517726e+03
1.037517e+03,2.510259e+03
1.048123e+03,2.504822e+03
1.058730e+03,2.479510e+03
1.069336e+03,2.480789e+03
1.079943e+03,2.463836e+03
1.090550e+03,2.487657e+03
1.101156e+03,2.454974e+03
1.111763e+03,2.444620e+03
1.122369e+03,2.451175e+03
1.132976e+03,2.434016e+03
1.143582e+03,2.402758e+03
1.154189e+03,2.389860e+03
1.164796e+03,2.382576e+03
1.175402e+03,2.349231e+03
1.186009e+03,2.321872e+03
1.196615e+03,2.331795e+03
1.207222e+03,2.327355e+03
1.217828e+03,2.323224e+03
1.228435e+03,2.304401e+03
1.239042e+03,2.304522e+03
1.249648e+03,2.293952e+03
1.260255e+03,2.259891e+03
1.270861e+03,2.266142e+03
1.281468e+03,2.246595e+03
1.292074e+03,2.236722e+03
1.302681e+03,2.213409e+03
1.313287e+03,2.218300e+03
1.323894e+03,2.199890e+03
1.334501e+03,2.213999e+03
1.345107e+03,2.189197e+03
1.355714e+03,2.176258e+03
1.366320e+03,2.163723e+03
1.376927e+03,2.146724e+03
1.387533e+03,2.117565e+03
1.398140e+03,2.094314e+03
1.408747e+03,2.090933e+03
1.419353e+03,2.080984e+03
1.429960e+03,2.057076e+03
1.440566e+03,2.042361e+03
1.451173e+03,2.031218e+03
1.461779e+03,2.023551e+03
1.472386e+03,1.991805e+03
1.482993e+03,1.991439e+03
1.493599e+03,1.977232e+03
1.504206e+03,1.961734e+03
1.514812e+03,1.930377e+03
1.525419e+03,1.932053e+03
1.536025e+03,1.925396e+03
1.546632e+03,1.909613e+03
1.557239e+03,1.919949e+03
1.567845e+03,1.926864e+03
1.578452e+03,1.904591e+03
1.589058e+03,1.876903e+03
1.599665e+03,1.855177e+03
1.610271e+03,1.862727e+03
1.620878e+03,1.841011e+03
1.631484e+03,1.815455e+03
1.642091e+03,1.812258e+03
1.652698e+03,1.803084e+03
1.663304e+03,1.776045e+03
1.673911e+03,1.763249e+03
1.684517e+03,1.757034e+03
1.695124e+03,1.745423e+03
1.705730e+03,1.725750e+03
1.716337e+03,1.709704e+03
1.726944e+03,1.704840e+03
1.737550e+03,1.681948e+03
1.748157e+03,1.663500e+03
1.758763e+03,1.664122e+03
1.769370e+03,1.657731e+03
1.779976e+03,1.623586e+03
1.790583e+03,1.610643e+03
1.801190e+03,1.621091e+03
1.811796e+03,1.604304e+03
1.822403e+03,1.569073e+03
1.833009e+03,1.549485e+03
1.843616e+03,1.564390e+03
1.854222e+03,1.539528e+03
1.864829e+03,1.529720e+03
1.875436e+03,1.522611e+03
1.886042e+03,1.484046e+03
1.896649e+03,1.476173e+03
1.907255e+03,1.467190e+03
1.917862e+03,1.455441e+03
1.928468e+03,1.436121e+03
1.939075e+03,1.435453e+03
1.949682e+03,1.413335e+03
1.960288e+03,1.397886e+03
1.970895e+03,1.377061e+03
1.981501e+03,1.382208e+03
1.992108e+03,1.354621e+03
2.002714e+03,1.329484e+03
2.013321e+03,1.341083e+03
2.023927e+03,1.317275e+03
2.034534e+03,1.311248e+03
2.045141e+03,1.284378e+03
2.055747e+03,1.267453e+03
2.066354e+03,1.264802e+03
2.076960e+03,1.254075e+03
2.087567e+03,1.238039e+03
2.098173e+03,1.239171e+03
2.108780e+03,1.230189e+03
2.119387e+03,1.205273e+03
2.129993e+03,1.194278e+03
2.140600e+03,1.178074e+03
2.151206e+03,1.164306e+03
2.161813e+03,1.145503e+03
2.172419e+03,1.151136e+03
2.183026e+03,1.128553e+03
2.193633e+03,1.101514e+03
2.204239e+03,1.114819e+03
2.214846e+03,1.089490e+03
2.225452e+03,1.075442e+03
2.236059e+03,1.048732e+03
2.246666e+03,1.044944e+03
2.257272e+03,1.034818e+03
2.267879e+03,1.022939e+03
2.278485e+03,1.004796e+03
2.289092e+03,1.005960e+03
2.299698e+03,1.001198e+03
2.310305e+03,9.815198e+02
2.320911e+03,9.793284e+02
2.331518e+03,9.513770e+02
2.342125e+03,9.533226e+02
2.352731e+03,9.454957e+02
2.363338e+03,9.423273e+02
2.373944e+03,9.309887e+02
2.384551e+03,9.141985e+02
2.395157e+03,9.085429e+02
2.405764e+03,8.973952e+02
2.416370e+03,8.845039e+02
2.426977e+03,8.835824e+02
2.437584e+03,8.703029e+02
2.448190e+03,8.661285e+02
2.458797e+03,8.623512e+02
2.469403e+03,8.459158e+02
2.480010e+03,8.350409e+02
2.490616e+03,8.220295e+02
2.501223e+03,8.245182e+02
2.511830e+03,8.088491e+02
2.522436e+03,7.927091e+02
2.533043e+03,7.955143e+02
2.543649e+03,7.909640e+02
2.554256e+03,7.902618e+02
2.564863e+03,7.816527e+02
2.575469e+03,7.735547e+02
2.586075e+03,7.557277e+02
2.596682e+03,7.455546e+02
2.607289e+03,7.360945e+02
2.617895e+03,7.426521e+02
2.628502e+03,7.312766e+02
2.639108e+03,7.344677e+02
2.649715e+03,7.254896e+02
2.660322e+03,7.296592e+02
2.670928e+03,7.265200e+02
2.681535e+03,7.119906e+02
2.692141e+03,6.837598e+02
2.702748e+03,6.994033e+02
2.713354e+03,6.902743e+02
2.723961e+03,6.661272e+02
2.734568e+03,6.839097e+02
2.745174e+03,6.713965e+02
2.755781e+03,6.521526e+02
2.766387e+03,6.487518e+02
2.776994e+03,6.619058e+02
2.787600e+03,6.587856e+02
2.798207e+03,6.627894e+02
2.808813e+03,6.448159e+02
2.819420e+03,6.433601e+02
2.830027e+03,6.398033e+02
2.840633e+03,6.320430e+02
2.851240e+03,6.410723e+02
2.861846e+03,6.462977e+02
2.872453e+03,6.500186e+02
2.883059e+03,6.385871e+02
2.893666e+03,6.628760e+02
2.904273e+03,6.408581e+02
2.914879e+03,6.442520e+02
2.925486e+03,6.303319e+02
2.936092e+03,6.080159e+02
2.946699e+03,6.136306e+02
2.957305e+03,6.318793e+02
2.967912e+03,6.000914e+02
2.978519e+03,5.941442e+02
2.989125e+03,5.622602e+02
2.999732e+03,5.735019e+02
3.010338e+03,5.757579e+02
3.020945e+03,5.813545e+02
3.031552e+03,5.670804e+02
3.042158e+03,5.732034e+02
3.052764e+03,5.542867e+02
3.063371e+03,5.665461e+02
3.073978e+03,5.548484e+02
3.084584e+03,5.817012e+02
3.095191e+03,5.739706e+02
3.105797e+03,5.585787e+02
3.116404e+03,5.609938e+02
3.127010e+03,5.332495e+02
3.137617e+03,5.165774e+02
3.148224e+03,5.458117e+02
3.158830e+03,5.698780e+02
3.169437e+03,5.781110e+02
3.180043e+03,5.358794e+02
3.190650e+03,5.425257e+02
3.200292e+03,5.881885e+02