Folder: Taff_Bargoed_microplastics_data/RAMAN_data/20012023_r1 (part 5)

File: blue fibre1.CSV
1.995979e+02,1.046964e+04
2.102045e+02,1.054658e+04
2.208110e+02,1.066058e+04
2.314176e+02,1.075159e+04
2.420242e+02,1.083454e+04
2.526307e+02,1.095972e+04
2.632373e+02,1.105562e+04
2.738439e+02,1.115154e+04
2.844504e+02,1.128402e+04
2.950570e+02,1.137532e+04
3.056636e+02,1.147431e+04
3.162701e+02,1.159601e+04
3.268767e+02,1.171076e+04
3.374833e+02,1.180784e+04
3.480898e+02,1.197636e+04
3.586964e+02,1.211193e+04
3.693030e+02,1.219936e+04
3.799095e+02,1.235504e+04
3.905161e+02,1.250335e+04
4.011227e+02,1.261709e+04
4.117292e+02,1.274472e+04
4.223358e+02,1.287724e+04
4.329424e+02,1.300393e+04
4.435490e+02,1.317664e+04
4.541555e+02,1.331778e+04
4.647621e+02,1.340945e+04
4.753687e+02,1.353410e+04
4.859752e+02,1.367048e+04
4.965818e+02,1.380458e+04
5.071884e+02,1.389094e+04
5.177949e+02,1.401878e+04
5.284015e+02,1.411754e+04
5.390081e+02,1.417050e+04
5.496146e+02,1.428900e+04
5.602212e+02,1.436940e+04
5.708278e+02,1.441442e+04
5.814343e+02,1.455359e+04
5.920409e+02,1.467274e+04
6.026475e+02,1.474913e+04
6.132540e+02,1.479843e+04
6.238606e+02,1.488985e+04
6.344672e+02,1.494905e+04
6.450737e+02,1.500892e+04
6.556803e+02,1.510486e+04
6.662869e+02,1.514652e+04
6.768934e+02,1.515402e+04
6.875000e+02,1.519729e+04
6.981066e+02,1.526940e+04
7.087131e+02,1.524811e+04
7.193197e+02,1.528880e+04
7.299263e+02,1.527675e+04
7.405328e+02,1.526814e+04
7.511394e+02,1.525585e+04
7.617460e+02,1.528184e+04
7.723525e+02,1.518254e+04
7.829591e+02,1.518655e+04
7.935657e+02,1.517511e+04
8.041722e+02,1.510259e+04
8.147788e+02,1.510239e+04
8.253854e+02,1.507502e+04
8.359919e+02,1.500431e+04
8.465985e+02,1.490606e+04
8.572051e+02,1.483683e+04
8.678116e+02,1.475676e+04
8.784182e+02,1.468225e+04
8.890248e+02,1.463441e+04
8.996313e+02,1.452496e+04
9.102379e+02,1.445255e+04
9.208445e+02,1.435686e+04
9.314510e+02,1.430841e+04
9.420576e+02,1.422252e+04
9.526642e+02,1.410908e+04
9.632708e+02,1.397930e+04
9.738773e+02,1.382912e+04
9.844839e+02,1.373304e+04
9.950905e+02,1.366892e+04
1.005697e+03,1.352145e+04
1.016304e+03,1.341451e+04
1.026910e+03,1.335846e+04
1.037517e+03,1.323569e+04
1.048123e+03,1.311863e+04
1.058730e+03,1.306401e+04
1.069336e+03,1.300415e+04
1.079943e+03,1.289903e+04
1.090550e+03,1.282595e+04
1.101156e+03,1.272673e+04
1.111763e+03,1.262101e+04
1.122369e+03,1.257191e+04
1.132976e+03,1.251656e+04
1.143582e+03,1.240975e+04
1.154189e+03,1.235424e+04
1.164796e+03,1.231307e+04
1.175402e+03,1.221976e+04
1.186009e+03,1.216541e+04
1.196615e+03,1.216027e+04
1.207222e+03,1.208390e+04
1.217828e+03,1.206533e+04
1.228435e+03,1.209763e+04
1.239042e+03,1.207756e+04
1.249648e+03,1.205246e+04
1.260255e+03,1.209609e+04
1.270861e+03,1.211051e+04
1.281468e+03,1.208050e+04
1.292074e+03,1.213719e+04
1.302681e+03,1.218566e+04
1.313287e+03,1.220867e+04
1.323894e+03,1.225404e+04
1.334501e+03,1.234862e+04
1.345107e+03,1.237413e+04
1.355714e+03,1.244750e+04
1.366320e+03,1.253539e+04
1.376927e+03,1.259968e+04
1.387533e+03,1.272866e+04
1.398140e+03,1.286956e+04
1.408747e+03,1.296993e+04
1.419353e+03,1.312374e+04
1.429960e+03,1.328490e+04
1.440566e+03,1.339520e+04
1.451173e+03,1.354278e+04
1.461779e+03,1.377436e+04
1.472386e+03,1.393552e+04
1.482993e+03,1.412307e+04
1.493599e+03,1.435119e+04
1.504206e+03,1.459644e+04
1.514812e+03,1.480763e+04
1.525419e+03,1.511550e+04
1.536025e+03,1.537480e+04
1.546632e+03,1.561372e+04
1.557239e+03,1.594515e+04
1.567845e+03,1.624655e+04
1.578452e+03,1.652163e+04
1.589058e+03,1.681156e+04
1.599665e+03,1.715709e+04
1.610271e+03,1.746375e+04
1.620878e+03,1.779500e+04
1.631484e+03,1.814701e+04
1.642091e+03,1.852139e+04
1.652698e+03,1.887630e+04
1.663304e+03,1.921766e+04
1.673911e+03,1.961131e+04
1.684517e+03,1.995781e+04
1.695124e+03,2.039503e+04
1.705730e+03,2.081964e+04
1.716337e+03,2.117459e+04
1.726944e+03,2.159301e+04
1.737550e+03,2.203576e+04
1.748157e+03,2.237037e+04
1.758763e+03,2.277050e+04
1.769370e+03,2.317957e+04
1.779976e+03,2.351696e+04
1.790583e+03,2.386369e+04
1.801190e+03,2.424493e+04
1.811796e+03,2.453788e+04
1.822403e+03,2.483762e+04
1.833009e+03,2.520761e+04
1.843616e+03,2.556312e+04
1.854222e+03,2.574513e+04
1.864829e+03,2.611900e+04
1.875436e+03,2.646860e+04
1.886042e+03,2.666502e+04
1.896649e+03,2.698379e+04
1.907255e+03,2.728233e+04
1.917862e+03,2.729350e+04
1.928468e+03,2.744157e+04
1.939075e+03,2.728974e+04
1.949682e+03,2.704772e+04
1.960288e+03,2.684819e+04
1.970895e+03,2.663695e+04
1.981501e+03,2.634533e+04
1.992108e+03,2.608946e+04
2.002714e+03,2.602132e+04
2.013321e+03,2.573763e+04
2.023927e+03,2.534988e+04
2.034534e+03,2.508647e+04
2.045141e+03,2.483359e+04
2.055747e+03,2.457396e+04
2.066354e+03,2.434884e+04
2.076960e+03,2.404818e+04
2.087567e+03,2.383011e+04
2.098173e+03,2.363139e+04
2.108780e+03,2.341825e+04
2.119387e+03,2.310607e+04
2.129993e+03,2.280874e+04
2.140600e+03,2.264824e+04
2.151206e+03,2.247278e+04
2.161813e+03,2.219089e+04
2.172419e+03,2.198982e+04
2.183026e+03,2.164061e+04
2.193633e+03,2.141928e+04
2.204239e+03,2.121374e+04
2.214846e+03,2.095972e+04
2.225452e+03,2.055857e+04
2.236059e+03,2.042265e+04
2.246666e+03,2.014868e+04
2.257272e+03,1.984097e+04
2.267879e+03,1.968773e+04
2.278485e+03,1.943205e+04
2.289092e+03,1.914072e+04
2.299698e+03,1.905030e+04
2.310305e+03,1.873386e+04
2.320911e+03,1.849837e+04
2.331518e+03,1.834749e+04
2.342125e+03,1.809843e+04
2.352731e+03,1.780349e+04
2.363338e+03,1.768315e+04
2.373944e+03,1.748512e+04
2.384551e+03,1.724555e+04
2.395157e+03,1.710473e+04
2.405764e+03,1.687357e+04
2.416370e+03,1.657526e+04
2.426977e+03,1.640627e+04
2.437584e+03,1.623409e+04
2.448190e+03,1.600203e+04
2.458797e+03,1.579188e+04
2.469403e+03,1.558909e+04
2.480010e+03,1.549054e+04
2.490616e+03,1.521482e+04
2.501223e+03,1.509387e+04
2.511830e+03,1.486089e+04
2.522436e+03,1.467953e+04
2.533043e+03,1.451073e+04
2.543649e+03,1.438237e+04
2.554256e+03,1.411458e+04
2.564863e+03,1.405002e+04
2.575469e+03,1.393913e+04
2.586075e+03,1.372323e+04
2.596682e+03,1.358271e+04
2.607289e+03,1.345456e+04
2.617895e+03,1.330582e+04
2.628502e+03,1.315277e+04
2.639108e+03,1.300600e+04
2.649715e+03,1.292330e+04
2.660322e+03,1.266625e+04
2.670928e+03,1.260407e+04
2.681535e+03,1.245449e+04
2.692141e+03,1.235074e+04
2.702748e+03,1.223859e+04
2.713354e+03,1.208945e+04
2.723961e+03,1.201227e+04
2.734568e+03,1.188666e+04
2.745174e+03,1.170694e+04
2.755781e+03,1.164025e+04
2.766387e+03,1.147938e+04
2.776994e+03,1.135843e+04
2.787600e+03,1.128721e+04
2.798207e+03,1.117612e+04
2.808813e+03,1.101245e+04
2.819420e+03,1.098128e+04
2.830027e+03,1.081511e+04
2.840633e+03,1.083298e+04
2.851240e+03,1.068354e+04
2.861846e+03,1.058768e+04
2.872453e+03,1.054367e+04
2.883059e+03,1.043335e+04
2.893666e+03,1.036391e+04
2.904273e+03,1.033062e+04
2.914879e+03,1.018018e+04
2.925486e+03,1.019192e+04
2.936092e+03,9.971466e+03
2.946699e+03,9.983638e+03
2.957305e+03,1.000288e+04
2.967912e+03,9.761556e+03
2.978519e+03,9.794054e+03
2.989125e+03,9.653941e+03
2.999732e+03,9.578326e+03
3.010338e+03,9.573395e+03
3.020945e+03,9.428278e+03
3.031552e+03,9.424547e+03
3.042158e+03,9.381168e+03
3.052764e+03,9.372094e+03
3.063371e+03,9.313384e+03
3.073978e+03,9.250404e+03
3.084584e+03,9.239065e+03
3.095191e+03,9.165960e+03
3.105797e+03,9.183061e+03
3.116404e+03,9.130176e+03
3.127010e+03,9.129894e+03
3.137617e+03,9.099229e+03
3.148224e+03,9.027131e+03
3.158830e+03,8.956348e+03
3.169437e+03,9.015504e+03
3.180043e+03,9.033399e+03
3.190650e+03,9.075467e+03
3.200292e+03,9.146331e+03

File: blue fibre5.CSV
1.995979e+02,4.498320e+03
2.102045e+02,4.529242e+03
2.208110e+02,4.564215e+03
2.314176e+02,4.563913e+03
2.420242e+02,4.589953e+03
2.526307e+02,4.614288e+03
2.632373e+02,4.601405e+03
2.738439e+02,4.624158e+03
2.844504e+02,4.657208e+03
2.950570e+02,4.656593e+03
3.056636e+02,4.658210e+03
3.162701e+02,4.682304e+03
3.268767e+02,4.685314e+03
3.374833e+02,4.673208e+03
3.480898e+02,4.695733e+03
3.586964e+02,4.695209e+03
3.693030e+02,4.675118e+03
3.799095e+02,4.701477e+03
3.905161e+02,4.685431e+03
4.011227e+02,4.656575e+03
4.117292e+02,4.692404e+03
4.223358e+02,4.673551e+03
4.329424e+02,4.671991e+03
4.435490e+02,4.677896e+03
4.541555e+02,4.656198e+03
4.647621e+02,4.620779e+03
4.753687e+02,4.608161e+03
4.859752e+02,4.625507e+03
4.965818e+02,4.595545e+03
5.071884e+02,4.576870e+03
5.177949e+02,4.592162e+03
5.284015e+02,4.559913e+03
5.390081e+02,4.513125e+03
5.496146e+02,4.515251e+03
5.602212e+02,4.526351e+03
5.708278e+02,4.473933e+03
5.814343e+02,4.464587e+03
5.920409e+02,4.454589e+03
6.026475e+02,4.445261e+03
6.132540e+02,4.426410e+03
6.238606e+02,4.405506e+03
6.344672e+02,4.386969e+03
6.450737e+02,4.363055e+03
6.556803e+02,4.339616e+03
6.662869e+02,4.315997e+03
6.768934e+02,4.284210e+03
6.875000e+02,4.287621e+03
6.981066e+02,4.271677e+03
7.087131e+02,4.225620e+03
7.193197e+02,4.205060e+03
7.299263e+02,4.158005e+03
7.405328e+02,4.147479e+03
7.511394e+02,4.132195e+03
7.617460e+02,4.112097e+03
7.723525e+02,4.082869e+03
7.829591e+02,4.061543e+03
7.935657e+02,4.029398e+03
8.041722e+02,4.010167e+03
8.147788e+02,3.996433e+03
8.253854e+02,3.975323e+03
8.359919e+02,3.942514e+03
8.465985e+02,3.927070e+03
8.572051e+02,3.906561e+03
8.678116e+02,3.861373e+03
8.784182e+02,3.844038e+03
8.890248e+02,3.844927e+03
8.996313e+02,3.795399e+03
9.102379e+02,3.768817e+03
9.208445e+02,3.740726e+03
9.314510e+02,3.713353e+03
9.420576e+02,3.709418e+03
9.526642e+02,3.669482e+03
9.632708e+02,3.652982e+03
9.738773e+02,3.605067e+03
9.844839e+02,3.585772e+03
9.950905e+02,3.580789e+03
1.005697e+03,3.553540e+03
1.016304e+03,3.514829e+03
1.026910e+03,3.529409e+03
1.037517e+03,3.490528e+03
1.048123e+03,3.451589e+03
1.058730e+03,3.447919e+03
1.069336e+03,3.450883e+03
1.079943e+03,3.410524e+03
1.090550e+03,3.420775e+03
1.101156e+03,3.397088e+03
1.111763e+03,3.365419e+03
1.122369e+03,3.374681e+03
1.132976e+03,3.335093e+03
1.143582e+03,3.323477e+03
1.154189e+03,3.301612e+03
1.164796e+03,3.246669e+03
1.175402e+03,3.242488e+03
1.186009e+03,3.233132e+03
1.196615e+03,3.206009e+03
1.207222e+03,3.180303e+03
1.217828e+03,3.161754e+03
1.228435e+03,3.162218e+03
1.239042e+03,3.143841e+03
1.249648e+03,3.096920e+03
1.260255e+03,3.091171e+03
1.270861e+03,3.100484e+03
1.281468e+03,3.088881e+03
1.292074e+03,3.058541e+03
1.302681e+03,3.036731e+03
1.313287e+03,3.012989e+03
1.323894e+03,3.003726e+03
1.334501e+03,3.013223e+03
1.345107e+03,2.973737e+03
1.355714e+03,2.967085e+03
1.366320e+03,2.947836e+03
1.376927e+03,2.929559e+03
1.387533e+03,2.900308e+03
1.398140e+03,2.877965e+03
1.408747e+03,2.876572e+03
1.419353e+03,2.844899e+03
1.429960e+03,2.831314e+03
1.440566e+03,2.803025e+03
1.451173e+03,2.785327e+03
1.461779e+03,2.774651e+03
1.472386e+03,2.768595e+03
1.482993e+03,2.741261e+03
1.493599e+03,2.721825e+03
1.504206e+03,2.709911e+03
1.514812e+03,2.690229e+03
1.525419e+03,2.673876e+03
1.536025e+03,2.652316e+03
1.546632e+03,2.640400e+03
1.557239e+03,2.632290e+03
1.567845e+03,2.623444e+03
1.578452e+03,2.607545e+03
1.589058e+03,2.601404e+03
1.599665e+03,2.557382e+03
1.610271e+03,2.548011e+03
1.620878e+03,2.522757e+03
1.631484e+03,2.512834e+03
1.642091e+03,2.489563e+03
1.652698e+03,2.479633e+03
1.663304e+03,2.444881e+03
1.673911e+03,2.434547e+03
1.684517e+03,2.416424e+03
1.695124e+03,2.387658e+03
1.705730e+03,2.374415e+03
1.716337e+03,2.371137e+03
1.726944e+03,2.330834e+03
1.737550e+03,2.332528e+03
1.748157e+03,2.309578e+03
1.758763e+03,2.288977e+03
1.769370e+03,2.275191e+03
1.779976e+03,2.259116e+03
1.790583e+03,2.223256e+03
1.801190e+03,2.200512e+03
1.811796e+03,2.205168e+03
1.822403e+03,2.180113e+03
1.833009e+03,2.155681e+03
1.843616e+03,2.161998e+03
1.854222e+03,2.117334e+03
1.864829e+03,2.092699e+03
1.875436e+03,2.090015e+03
1.886042e+03,2.069359e+03
1.896649e+03,2.032574e+03
1.907255e+03,2.032454e+03
1.917862e+03,2.006800e+03
1.928468e+03,1.972006e+03
1.939075e+03,1.953073e+03
1.949682e+03,1.953799e+03
1.960288e+03,1.942859e+03
1.970895e+03,1.911450e+03
1.981501e+03,1.904123e+03
1.992108e+03,1.857870e+03
2.002714e+03,1.842523e+03
2.013321e+03,1.831303e+03
2.023927e+03,1.831402e+03
2.034534e+03,1.784433e+03
2.045141e+03,1.782325e+03
2.055747e+03,1.753655e+03
2.066354e+03,1.732381e+03
2.076960e+03,1.733997e+03
2.087567e+03,1.706447e+03
2.098173e+03,1.705467e+03
2.108780e+03,1.685211e+03
2.119387e+03,1.658485e+03
2.129993e+03,1.631717e+03
2.140600e+03,1.608778e+03
2.151206e+03,1.599403e+03
2.161813e+03,1.579067e+03
2.172419e+03,1.570755e+03
2.183026e+03,1.557950e+03
2.193633e+03,1.528257e+03
2.204239e+03,1.530523e+03
2.214846e+03,1.491153e+03
2.225452e+03,1.460189e+03
2.236059e+03,1.464572e+03
2.246666e+03,1.438988e+03
2.257272e+03,1.427537e+03
2.267879e+03,1.417535e+03
2.278485e+03,1.398211e+03
2.289092e+03,1.367382e+03
2.299698e+03,1.359873e+03
2.310305e+03,1.342536e+03
2.320911e+03,1.322358e+03
2.331518e+03,1.287366e+03
2.342125e+03,1.295920e+03
2.352731e+03,1.275422e+03
2.363338e+03,1.273595e+03
2.373944e+03,1.245297e+03
2.384551e+03,1.238137e+03
2.395157e+03,1.220495e+03
2.405764e+03,1.205482e+03
2.416370e+03,1.203232e+03
2.426977e+03,1.180536e+03
2.437584e+03,1.171861e+03
2.448190e+03,1.156232e+03
2.458797e+03,1.139758e+03
2.469403e+03,1.139761e+03
2.480010e+03,1.119256e+03
2.490616e+03,1.105045e+03
2.501223e+03,1.104881e+03
2.511830e+03,1.091310e+03
2.522436e+03,1.075987e+03
2.533043e+03,1.073640e+03
2.543649e+03,1.049831e+03
2.554256e+03,1.054026e+03
2.564863e+03,1.047814e+03
2.575469e+03,1.032193e+03
2.586075e+03,1.016359e+03
2.596682e+03,9.921164e+02
2.607289e+03,9.965828e+02
2.617895e+03,9.969724e+02
2.628502e+03,9.990252e+02
2.639108e+03,9.729481e+02
2.649715e+03,9.545010e+02
2.660322e+03,9.607916e+02
2.670928e+03,9.484229e+02
2.681535e+03,9.250842e+02
2.692141e+03,9.211087e+02
2.702748e+03,9.168484e+02
2.713354e+03,8.988845e+02
2.723961e+03,8.998530e+02
2.734568e+03,8.793036e+02
2.745174e+03,9.026532e+02
2.755781e+03,8.808226e+02
2.766387e+03,8.677952e+02
2.776994e+03,8.753174e+02
2.787600e+03,8.551873e+02
2.798207e+03,8.614807e+02
2.808813e+03,8.497660e+02
2.819420e+03,8.411468e+02
2.830027e+03,8.446527e+02
2.840633e+03,8.198337e+02
2.851240e+03,8.180335e+02
2.861846e+03,8.398407e+02
2.872453e+03,8.291683e+02
2.883059e+03,8.583839e+02
2.893666e+03,8.385357e+02
2.904273e+03,8.140384e+02
2.914879e+03,8.345771e+02
2.925486e+03,8.184047e+02
2.936092e+03,7.878262e+02
2.946699e+03,7.881404e+02
2.957305e+03,8.446485e+02
2.967912e+03,7.732974e+02
2.978519e+03,7.773234e+02
2.989125e+03,7.440713e+02
2.999732e+03,7.360788e+02
3.010338e+03,7.504964e+02
3.020945e+03,7.558965e+02
3.031552e+03,7.142933e+02
3.042158e+03,7.320357e+02
3.052764e+03,7.358818e+02
3.063371e+03,7.313311e+02
3.073978e+03,7.451394e+02
3.084584e+03,7.096807e+02
3.095191e+03,7.496391e+02
3.105797e+03,6.838185e+02
3.116404e+03,7.338701e+02
3.127010e+03,7.529150e+02
3.137617e+03,7.384219e+02
3.148224e+03,6.996985e+02
3.158830e+03,7.273291e+02
3.169437e+03,7.107228e+02
3.180043e+03,6.917228e+02
3.190650e+03,7.630616e+02
3.200292e+03,7.621635e+02

File: blue fibre7.CSV
1.995979e+02,1.043386e+04
2.102045e+02,1.053574e+04
2.208110e+02,1.064697e+04
2.314176e+02,1.074361e+04
2.420242e+02,1.080225e+04
2.526307e+02,1.094087e+04
2.632373e+02,1.104929e+04
2.738439e+02,1.111904e+04
2.844504e+02,1.128064e+04
2.950570e+02,1.135869e+04
3.056636e+02,1.145896e+04
3.162701e+02,1.157587e+04
3.268767e+02,1.167330e+04
3.374833e+02,1.177743e+04
3.480898e+02,1.192112e+04
3.586964e+02,1.207646e+04
3.693030e+02,1.213097e+04
3.799095e+02,1.224277e+04
3.905161e+02,1.235036e+04
4.011227e+02,1.245332e+04
4.117292e+02,1.255552e+04
4.223358e+02,1.267513e+04
4.329424e+02,1.275294e+04
4.435490e+02,1.290640e+04
4.541555e+02,1.302769e+04
4.647621e+02,1.309611e+04
4.753687e+02,1.318886e+04
4.859752e+02,1.327534e+04
4.965818e+02,1.335587e+04
5.071884e+02,1.342324e+04
5.177949e+02,1.352112e+04
5.284015e+02,1.357761e+04
5.390081e+02,1.359356e+04
5.496146e+02,1.366852e+04
5.602212e+02,1.369478e+04
5.708278e+02,1.371565e+04
5.814343e+02,1.391985e+04
5.920409e+02,1.396719e+04
6.026475e+02,1.392178e+04
6.132540e+02,1.394828e+04
6.238606e+02,1.394393e+04
6.344672e+02,1.401229e+04
6.450737e+02,1.392790e+04
6.556803e+02,1.407200e+04
6.662869e+02,1.411994e+04
6.768934e+02,1.408160e+04
6.875000e+02,1.408670e+04
6.981066e+02,1.414916e+04
7.087131e+02,1.409815e+04
7.193197e+02,1.414970e+04
7.299263e+02,1.417720e+04
7.405328e+02,1.422573e+04
7.511394e+02,1.418773e+04
7.617460e+02,1.445883e+04
7.723525e+02,1.426114e+04
7.829591e+02,1.420393e+04
7.935657e+02,1.427085e+04
8.041722e+02,1.424780e+04
8.147788e+02,1.416768e+04
8.253854e+02,1.415432e+04
8.359919e+02,1.418300e+04
8.465985e+02,1.421393e+04
8.572051e+02,1.415167e+04
8.678116e+02,1.417710e+04
8.784182e+02,1.412719e+04
8.890248e+02,1.415084e+04
8.996313e+02,1.411104e+04
9.102379e+02,1.405153e+04
9.208445e+02,1.399419e+04
9.314510e+02,1.399425e+04
9.420576e+02,1.394797e+04
9.526642e+02,1.385831e+04
9.632708e+02,1.377769e+04
9.738773e+02,1.365003e+04
9.844839e+02,1.360223e+04
9.950905e+02,1.352577e+04
1.005697e+03,1.343521e+04
1.016304e+03,1.334787e+04
1.026910e+03,1.332949e+04
1.037517e+03,1.322918e+04
1.048123e+03,1.311846e+04
1.058730e+03,1.306401e+04
1.069336e+03,1.300415e+04
1.079943e+03,1.289903e+04
1.090550e+03,1.282595e+04
1.101156e+03,1.272673e+04
1.111763e+03,1.262101e+04
1.122369e+03,1.257191e+04
1.132976e+03,1.251656e+04
1.143582e+03,1.240975e+04
1.154189e+03,1.235424e+04
1.164796e+03,1.231307e+04
1.175402e+03,1.221976e+04
1.186009e+03,1.216541e+04
1.196615e+03,1.216027e+04
1.207222e+03,1.208390e+04
1.217828e+03,1.206533e+04
1.228435e+03,1.209763e+04
1.239042e+03,1.207756e+04
1.249648e+03,1.205246e+04
1.260255e+03,1.209609e+04
1.270861e+03,1.211051e+04
1.281468e+03,1.208050e+04
1.292074e+03,1.213719e+04
1.302681e+03,1.218566e+04
1.313287e+03,1.220867e+04
1.323894e+03,1.225404e+04
1.334501e+03,1.234862e+04
1.345107e+03,1.237413e+04
1.355714e+03,1.244750e+04
1.366320e+03,1.253770e+04
1.376927e+03,1.253844e+04
1.387533e+03,1.263314e+04
1.398140e+03,1.271286e+04
1.408747e+03,1.275718e+04
1.419353e+03,1.282238e+04
1.429960e+03,1.281213e+04
1.440566e+03,1.277756e+04
1.451173e+03,1.271480e+04
1.461779e+03,1.273763e+04
1.472386e+03,1.268601e+04
1.482993e+03,1.261118e+04
1.493599e+03,1.260212e+04
1.504206e+03,1.258501e+04
1.514812e+03,1.254185e+04
1.525419e+03,1.265997e+04
1.536025e+03,1.248948e+04
1.546632e+03,1.235490e+04
1.557239e+03,1.234217e+04
1.567845e+03,1.231148e+04
1.578452e+03,1.224769e+04
1.589058e+03,1.227896e+04
1.599665e+03,1.217881e+04
1.610271e+03,1.206308e+04
1.620878e+03,1.203187e+04
1.631484e+03,1.210277e+04
1.642091e+03,1.185697e+04
1.652698e+03,1.179433e+04
1.663304e+03,1.171399e+04
1.673911e+03,1.170951e+04
1.684517e+03,1.173694e+04
1.695124e+03,1.161311e+04
1.705730e+03,1.156495e+04
1.716337e+03,1.145018e+04
1.726944e+03,1.137526e+04
1.737550e+03,1.130900e+04
1.748157e+03,1.122089e+04
1.758763e+03,1.119765e+04
1.769370e+03,1.113933e+04
1.779976e+03,1.103780e+04
1.790583e+03,1.092864e+04
1.801190e+03,1.089878e+04
1.811796e+03,1.086376e+04
1.822403e+03,1.082082e+04
1.833009e+03,1.078253e+04
1.843616e+03,1.070559e+04
1.854222e+03,1.062949e+04
1.864829e+03,1.060973e+04
1.875436e+03,1.053914e+04
1.886042e+03,1.038936e+04
1.896649e+03,1.034781e+04
1.907255e+03,1.026072e+04
1.917862e+03,1.016671e+04
1.928468e+03,1.017192e+04
1.939075e+03,1.009131e+04
1.949682e+03,9.983404e+03
1.960288e+03,9.957438e+03
1.970895e+03,9.909884e+03
1.981501e+03,9.812779e+03
1.992108e+03,9.760390e+03
2.002714e+03,9.698019e+03
2.013321e+03,9.613676e+03
2.023927e+03,9.526512e+03
2.034534e+03,9.503917e+03
2.045141e+03,9.412521e+03
2.055747e+03,9.312895e+03
2.066354e+03,9.259712e+03
2.076960e+03,9.221149e+03
2.087567e+03,9.136596e+03
2.098173e+03,9.074699e+03
2.108780e+03,9.056229e+03
2.119387e+03,8.944967e+03
2.129993e+03,8.851704e+03
2.140600e+03,8.775561e+03
2.151206e+03,8.775168e+03
2.161813e+03,8.677787e+03
2.172419e+03,8.597974e+03
2.183026e+03,8.520886e+03
2.193633e+03,8.484889e+03
2.204239e+03,8.433896e+03
2.214846e+03,8.343961e+03
2.225452e+03,8.243347e+03
2.236059e+03,8.184071e+03
2.246666e+03,8.140548e+03
2.257272e+03,8.046362e+03
2.267879e+03,8.004434e+03
2.278485e+03,7.900187e+03
2.289092e+03,7.865262e+03
2.299698e+03,7.855428e+03
2.310305e+03,7.740352e+03
2.320911e+03,7.715565e+03
2.331518e+03,7.615404e+03
2.342125e+03,7.536295e+03
2.352731e+03,7.505402e+03
2.363338e+03,7.459919e+03
2.373944e+03,7.356304e+03
2.384551e+03,7.370761e+03
2.395157e+03,7.261366e+03
2.405764e+03,7.220544e+03
2.416370e+03,7.155388e+03
2.426977e+03,7.100259e+03
2.437584e+03,7.028670e+03
2.448190e+03,6.980896e+03
2.458797e+03,6.906193e+03
2.469403e+03,6.827981e+03
2.480010e+03,6.851913e+03
2.490616e+03,6.781713e+03
2.501223e+03,6.685785e+03
2.511830e+03,6.669256e+03
2.522436e+03,6.613646e+03
2.533043e+03,6.543190e+03
2.543649e+03,6.507651e+03
2.554256e+03,6.448890e+03
2.564863e+03,6.379849e+03
2.575469e+03,6.356246e+03
2.586075e+03,6.282554e+03
2.596682e+03,6.276849e+03
2.607289e+03,6.200378e+03
2.617895e+03,6.078639e+03
2.628502e+03,6.089812e+03
2.639108e+03,6.042349e+03
2.649715e+03,6.041469e+03
2.660322e+03,5.970515e+03
2.670928e+03,5.926474e+03
2.681535e+03,5.849679e+03
2.692141e+03,5.797364e+03
2.702748e+03,5.772583e+03
2.713354e+03,5.699479e+03
2.723961e+03,5.634669e+03
2.734568e+03,5.617765e+03
2.745174e+03,5.571959e+03
2.755781e+03,5.555953e+03
2.766387e+03,5.519437e+03
2.776994e+03,5.496992e+03
2.787600e+03,5.443955e+03
2.798207e+03,5.420531e+03
2.808813e+03,5.314307e+03
2.819420e+03,5.255732e+03
2.830027e+03,5.256843e+03
2.840633e+03,5.210167e+03
2.851240e+03,5.198853e+03
2.861846e+03,5.135669e+03
2.872453e+03,5.116606e+03
2.883059e+03,5.132526e+03
2.893666e+03,5.070091e+03
2.904273e+03,5.040361e+03
2.914879e+03,4.961696e+03
2.925486e+03,4.926136e+03
2.936092e+03,4.910030e+03
2.946699e+03,4.835669e+03
2.957305e+03,4.819704e+03
2.967912e+03,4.796240e+03
2.978519e+03,4.733825e+03
2.989125e+03,4.679392e+03
2.999732e+03,4.677396e+03
3.010338e+03,4.663115e+03
3.020945e+03,4.624925e+03
3.031552e+03,4.604013e+03
3.042158e+03,4.615375e+03
3.052764e+03,4.554818e+03
3.063371e+03,4.535258e+03
3.073978e+03,4.436664e+03
3.084584e+03,4.450069e+03
3.095191e+03,4.429875e+03
3.105797e+03,4.405893e+03
3.116404e+03,4.380673e+03
3.127010e+03,4.376035e+03
3.137617e+03,4.402167e+03
3.148224e+03,4.359252e+03
3.158830e+03,4.251757e+03
3.169437e+03,4.306375e+03
3.180043e+03,4.286138e+03
3.190650e+03,4.341679e+03
3.200292e+03,4.300832e+03