Folder: Taff_Bargoed_microplastics_data/RAMAN_data/20012023_r1 (part 6)

File: blue fibre8.CSV
1.995979e+02,2.283414e+03
2.102045e+02,2.287756e+03
2.208110e+02,2.315110e+03
2.314176e+02,2.315995e+03
2.420242e+02,2.315124e+03
2.526307e+02,2.341183e+03
2.632373e+02,2.334544e+03
2.738439e+02,2.329626e+03
2.844504e+02,2.350826e+03
2.950570e+02,2.351784e+03
3.056636e+02,2.349481e+03
3.162701e+02,2.359210e+03
3.268767e+02,2.363735e+03
3.374833e+02,2.348947e+03
3.480898e+02,2.375906e+03
3.586964e+02,2.370742e+03
3.693030e+02,2.368833e+03
3.799095e+02,2.398282e+03
3.905161e+02,2.368754e+03
4.011227e+02,2.370073e+03
4.117292e+02,2.349379e+03
4.223358e+02,2.364926e+03
4.329424e+02,2.355878e+03
4.435490e+02,2.355561e+03
4.541555e+02,2.359516e+03
4.647621e+02,2.326995e+03
4.753687e+02,2.339155e+03
4.859752e+02,2.358645e+03
4.965818e+02,2.343397e+03
5.071884e+02,2.313720e+03
5.177949e+02,2.336015e+03
5.284015e+02,2.305278e+03
5.390081e+02,2.299576e+03
5.496146e+02,2.296357e+03
5.602212e+02,2.291124e+03
5.708278e+02,2.266056e+03
5.814343e+02,2.272003e+03
5.920409e+02,2.275601e+03
6.026475e+02,2.264189e+03
6.132540e+02,2.256232e+03
6.238606e+02,2.236891e+03
6.344672e+02,2.239636e+03
6.450737e+02,2.209346e+03
6.556803e+02,2.214625e+03
6.662869e+02,2.209034e+03
6.768934e+02,2.193721e+03
6.875000e+02,2.190433e+03
6.981066e+02,2.186762e+03
7.087131e+02,2.155315e+03
7.193197e+02,2.155744e+03
7.299263e+02,2.143094e+03
7.405328e+02,2.139001e+03
7.511394e+02,2.111506e+03
7.617460e+02,2.120967e+03
7.723525e+02,2.102069e+03
7.829591e+02,2.103071e+03
7.935657e+02,2.084381e+03
8.041722e+02,2.059580e+03
8.147788e+02,2.064870e+03
8.253854e+02,2.058206e+03
8.359919e+02,2.046470e+03
8.465985e+02,2.027545e+03
8.572051e+02,2.032754e+03
8.678116e+02,2.009440e+03
8.784182e+02,1.994977e+03
8.890248e+02,2.001888e+03
8.996313e+02,1.987510e+03
9.102379e+02,1.969273e+03
9.208445e+02,1.951128e+03
9.314510e+02,1.943547e+03
9.420576e+02,1.932039e+03
9.526642e+02,1.925588e+03
9.632708e+02,1.914970e+03
9.738773e+02,1.890111e+03
9.844839e+02,1.876633e+03
9.950905e+02,1.887123e+03
1.005697e+03,1.872966e+03
1.016304e+03,1.861996e+03
1.026910e+03,1.858421e+03
1.037517e+03,1.844650e+03
1.048123e+03,1.837986e+03
1.058730e+03,1.842316e+03
1.069336e+03,1.808937e+03
1.079943e+03,1.825695e+03
1.090550e+03,1.830012e+03
1.101156e+03,1.817076e+03
1.111763e+03,1.813865e+03
1.122369e+03,1.805395e+03
1.132976e+03,1.800214e+03
1.143582e+03,1.799038e+03
1.154189e+03,1.783509e+03
1.164796e+03,1.754213e+03
1.175402e+03,1.741766e+03
1.186009e+03,1.730686e+03
1.196615e+03,1.723518e+03
1.207222e+03,1.719807e+03
1.217828e+03,1.711187e+03
1.228435e+03,1.697247e+03
1.239042e+03,1.671097e+03
1.249648e+03,1.662808e+03
1.260255e+03,1.673000e+03
1.270861e+03,1.667311e+03
1.281468e+03,1.688322e+03
1.292074e+03,1.678954e+03
1.302681e+03,1.641527e+03
1.313287e+03,1.637358e+03
1.323894e+03,1.635067e+03
1.334501e+03,1.636591e+03
1.345107e+03,1.637113e+03
1.355714e+03,1.617177e+03
1.366320e+03,1.608897e+03
1.376927e+03,1.590000e+03
1.387533e+03,1.561612e+03
1.398140e+03,1.577415e+03
1.408747e+03,1.565639e+03
1.419353e+03,1.545564e+03
1.429960e+03,1.537708e+03
1.440566e+03,1.521982e+03
1.451173e+03,1.503043e+03
1.461779e+03,1.503300e+03
1.472386e+03,1.493434e+03
1.482993e+03,1.482398e+03
1.493599e+03,1.481019e+03
1.504206e+03,1.470441e+03
1.514812e+03,1.443844e+03
1.525419e+03,1.434732e+03
1.536025e+03,1.437797e+03
1.546632e+03,1.429479e+03
1.557239e+03,1.420942e+03
1.567845e+03,1.435480e+03
1.578452e+03,1.432397e+03
1.589058e+03,1.425481e+03
1.599665e+03,1.410900e+03
1.610271e+03,1.383684e+03
1.620878e+03,1.362906e+03
1.631484e+03,1.348234e+03
1.642091e+03,1.343997e+03
1.652698e+03,1.338809e+03
1.663304e+03,1.312655e+03
1.673911e+03,1.320575e+03
1.684517e+03,1.304945e+03
1.695124e+03,1.297084e+03
1.705730e+03,1.293891e+03
1.716337e+03,1.258600e+03
1.726944e+03,1.263653e+03
1.737550e+03,1.256447e+03
1.748157e+03,1.240848e+03
1.758763e+03,1.238701e+03
1.769370e+03,1.228349e+03
1.779976e+03,1.216437e+03
1.790583e+03,1.191803e+03
1.801190e+03,1.213365e+03
1.811796e+03,1.195691e+03
1.822403e+03,1.168882e+03
1.833009e+03,1.166463e+03
1.843616e+03,1.150262e+03
1.854222e+03,1.152380e+03
1.864829e+03,1.154462e+03
1.875436e+03,1.124064e+03
1.886042e+03,1.119372e+03
1.896649e+03,1.110936e+03
1.907255e+03,1.107916e+03
1.917862e+03,1.080649e+03
1.928468e+03,1.076131e+03
1.939075e+03,1.069175e+03
1.949682e+03,1.053725e+03
1.960288e+03,1.048126e+03
1.970895e+03,1.038841e+03
1.981501e+03,1.031355e+03
1.992108e+03,1.017983e+03
2.002714e+03,1.006016e+03
2.013321e+03,9.944579e+02
2.023927e+03,9.857686e+02
2.034534e+03,9.863969e+02
2.045141e+03,9.834327e+02
2.055747e+03,9.579811e+02
2.066354e+03,9.548577e+02
2.076960e+03,9.460593e+02
2.087567e+03,9.316547e+02
2.098173e+03,9.303707e+02
2.108780e+03,9.225369e+02
2.119387e+03,9.018728e+02
2.129993e+03,8.980359e+02
2.140600e+03,8.707591e+02
2.151206e+03,8.815726e+02
2.161813e+03,8.853932e+02
2.172419e+03,8.454311e+02
2.183026e+03,8.487162e+02
2.193633e+03,8.345917e+02
2.204239e+03,8.281402e+02
2.214846e+03,8.216622e+02
2.225452e+03,8.065632e+02
2.236059e+03,7.887531e+02
2.246666e+03,7.870853e+02
2.257272e+03,7.811474e+02
2.267879e+03,7.794695e+02
2.278485e+03,7.684182e+02
2.289092e+03,7.639804e+02
2.299698e+03,7.701454e+02
2.310305e+03,7.323175e+02
2.320911e+03,7.352339e+02
2.331518e+03,7.347321e+02
2.342125e+03,7.208566e+02
2.352731e+03,7.028231e+02
2.363338e+03,7.030046e+02
2.373944e+03,7.093075e+02
2.384551e+03,6.867382e+02
2.395157e+03,6.885942e+02
2.405764e+03,6.743582e+02
2.416370e+03,6.752995e+02
2.426977e+03,6.613029e+02
2.437584e+03,6.502399e+02
2.448190e+03,6.529268e+02
2.458797e+03,6.404075e+02
2.469403e+03,6.496082e+02
2.480010e+03,6.152270e+02
2.490616e+03,6.213333e+02
2.501223e+03,6.229312e+02
2.511830e+03,6.177950e+02
2.522436e+03,6.029600e+02
2.533043e+03,6.109471e+02
2.543649e+03,6.049666e+02
2.554256e+03,6.099665e+02
2.564863e+03,6.011778e+02
2.575469e+03,5.926400e+02
2.586075e+03,5.776396e+02
2.596682e+03,5.765078e+02
2.607289e+03,5.665128e+02
2.617895e+03,5.659628e+02
2.628502e+03,5.536953e+02
2.639108e+03,5.709061e+02
2.649715e+03,5.546222e+02
2.660322e+03,5.432885e+02
2.670928e+03,5.406469e+02
2.681535e+03,5.376349e+02
2.692141e+03,5.286826e+02
2.702748e+03,5.215601e+02
2.713354e+03,5.310349e+02
2.723961e+03,5.195609e+02
2.734568e+03,5.036270e+02
2.745174e+03,5.121794e+02
2.755781e+03,5.076324e+02
2.766387e+03,4.961020e+02
2.776994e+03,4.888443e+02
2.787600e+03,4.852535e+02
2.798207e+03,5.090471e+02
2.808813e+03,4.841564e+02
2.819420e+03,4.889648e+02
2.830027e+03,4.833426e+02
2.840633e+03,4.767419e+02
2.851240e+03,5.060339e+02
2.861846e+03,4.832300e+02
2.872453e+03,4.786299e+02
2.883059e+03,4.964013e+02
2.893666e+03,5.134086e+02
2.904273e+03,5.143825e+02
2.914879e+03,4.904312e+02
2.925486e+03,4.773923e+02
2.936092e+03,4.733269e+02
2.946699e+03,4.609734e+02
2.957305e+03,5.227789e+02
2.967912e+03,4.550435e+02
2.978519e+03,4.554207e+02
2.989125e+03,4.321258e+02
2.999732e+03,4.483756e+02
3.010338e+03,4.376029e+02
3.020945e+03,4.271520e+02
3.031552e+03,4.188361e+02
3.042158e+03,4.370248e+02
3.052764e+03,4.263452e+02
3.063371e+03,4.059810e+02
3.073978e+03,4.254841e+02
3.084584e+03,4.327307e+02
3.095191e+03,4.163295e+02
3.105797e+03,4.126434e+02
3.116404e+03,4.413203e+02
3.127010e+03,4.350783e+02
3.137617e+03,4.386554e+02
3.148224e+03,4.160557e+02
3.158830e+03,4.460944e+02
3.169437e+03,4.282686e+02
3.180043e+03,4.500580e+02
3.190650e+03,3.967637e+02
3.200292e+03,4.678374e+02

File: blue fibre9.CSV
1.995979e+02,1.046964e+04
2.102045e+02,1.054658e+04
2.208110e+02,1.066058e+04
2.314176e+02,1.075159e+04
2.420242e+02,1.083454e+04
2.526307e+02,1.095972e+04
2.632373e+02,1.105562e+04
2.738439e+02,1.115154e+04
2.844504e+02,1.128402e+04
2.950570e+02,1.137532e+04
3.056636e+02,1.147431e+04
3.162701e+02,1.159601e+04
3.268767e+02,1.171076e+04
3.374833e+02,1.180784e+04
3.480898e+02,1.197636e+04
3.586964e+02,1.211193e+04
3.693030e+02,1.219936e+04
3.799095e+02,1.235504e+04
3.905161e+02,1.250335e+04
4.011227e+02,1.261709e+04
4.117292e+02,1.274472e+04
4.223358e+02,1.287724e+04
4.329424e+02,1.300393e+04
4.435490e+02,1.317664e+04
4.541555e+02,1.331778e+04
4.647621e+02,1.340945e+04
4.753687e+02,1.353410e+04
4.859752e+02,1.367048e+04
4.965818e+02,1.380458e+04
5.071884e+02,1.389094e+04
5.177949e+02,1.401878e+04
5.284015e+02,1.411754e+04
5.390081e+02,1.417050e+04
5.496146e+02,1.428900e+04
5.602212e+02,1.436940e+04
5.708278e+02,1.441442e+04
5.814343e+02,1.455359e+04
5.920409e+02,1.467274e+04
6.026475e+02,1.474913e+04
6.132540e+02,1.479843e+04
6.238606e+02,1.488985e+04
6.344672e+02,1.494905e+04
6.450737e+02,1.500892e+04
6.556803e+02,1.510199e+04
6.662869e+02,1.514338e+04
6.768934e+02,1.514694e+04
6.875000e+02,1.518803e+04
6.981066e+02,1.515228e+04
7.087131e+02,1.514847e+04
7.193197e+02,1.515504e+04
7.299263e+02,1.510487e+04
7.405328e+02,1.509843e+04
7.511394e+02,1.507730e+04
7.617460e+02,1.507495e+04
7.723525e+02,1.504796e+04
7.829591e+02,1.506908e+04
7.935657e+02,1.503556e+04
8.041722e+02,1.485528e+04
8.147788e+02,1.484261e+04
8.253854e+02,1.474633e+04
8.359919e+02,1.475491e+04
8.465985e+02,1.461769e+04
8.572051e+02,1.459642e+04
8.678116e+02,1.448671e+04
8.784182e+02,1.441842e+04
8.890248e+02,1.437983e+04
8.996313e+02,1.429830e+04
9.102379e+02,1.419143e+04
9.208445e+02,1.408237e+04
9.314510e+02,1.402911e+04
9.420576e+02,1.394966e+04
9.526642e+02,1.384832e+04
9.632708e+02,1.378233e+04
9.738773e+02,1.364949e+04
9.844839e+02,1.355567e+04
9.950905e+02,1.354139e+04
1.005697e+03,1.336437e+04
1.016304e+03,1.328686e+04
1.026910e+03,1.321860e+04
1.037517e+03,1.312383e+04
1.048123e+03,1.303507e+04
1.058730e+03,1.296014e+04
1.069336e+03,1.297037e+04
1.079943e+03,1.286325e+04
1.090550e+03,1.275304e+04
1.101156e+03,1.263120e+04
1.111763e+03,1.251620e+04
1.122369e+03,1.245977e+04
1.132976e+03,1.237518e+04
1.143582e+03,1.224657e+04
1.154189e+03,1.215778e+04
1.164796e+03,1.211515e+04
1.175402e+03,1.203835e+04
1.186009e+03,1.195965e+04
1.196615e+03,1.190660e+04
1.207222e+03,1.171061e+04
1.217828e+03,1.161129e+04
1.228435e+03,1.160963e+04
1.239042e+03,1.150623e+04
1.249648e+03,1.133695e+04
1.260255e+03,1.123695e+04
1.270861e+03,1.114889e+04
1.281468e+03,1.105481e+04
1.292074e+03,1.101638e+04
1.302681e+03,1.090954e+04
1.313287e+03,1.085137e+04
1.323894e+03,1.078777e+04
1.334501e+03,1.072629e+04
1.345107e+03,1.057294e+04
1.355714e+03,1.049942e+04
1.366320e+03,1.045619e+04
1.376927e+03,1.029994e+04
1.387533e+03,1.022089e+04
1.398140e+03,1.018400e+04
1.408747e+03,1.008063e+04
1.419353e+03,9.973229e+03
1.429960e+03,9.924431e+03
1.440566e+03,9.854828e+03
1.451173e+03,9.887547e+03
1.461779e+03,9.759285e+03
1.472386e+03,9.628495e+03
1.482993e+03,9.603156e+03
1.493599e+03,9.521060e+03
1.504206e+03,9.428932e+03
1.514812e+03,9.455572e+03
1.525419e+03,9.299096e+03
1.536025e+03,9.182128e+03
1.546632e+03,9.139556e+03
1.557239e+03,9.122118e+03
1.567845e+03,9.308364e+03
1.578452e+03,9.189487e+03
1.589058e+03,8.981483e+03
1.599665e+03,8.851628e+03
1.610271e+03,8.782302e+03
1.620878e+03,8.739290e+03
1.631484e+03,8.727181e+03
1.642091e+03,8.554226e+03
1.652698e+03,8.464549e+03
1.663304e+03,8.399669e+03
1.673911e+03,8.410015e+03
1.684517e+03,8.296433e+03
1.695124e+03,8.217463e+03
1.705730e+03,8.129431e+03
1.716337e+03,8.084830e+03
1.726944e+03,7.976450e+03
1.737550e+03,7.944608e+03
1.748157e+03,7.872187e+03
1.758763e+03,7.836826e+03
1.769370e+03,7.750751e+03
1.779976e+03,7.683743e+03
1.790583e+03,7.593578e+03
1.801190e+03,7.569811e+03
1.811796e+03,7.492546e+03
1.822403e+03,7.450241e+03
1.833009e+03,7.392278e+03
1.843616e+03,7.339656e+03
1.854222e+03,7.234469e+03
1.864829e+03,7.171226e+03
1.875436e+03,7.153722e+03
1.886042e+03,7.091264e+03
1.896649e+03,6.991566e+03
1.907255e+03,6.966509e+03
1.917862e+03,6.870976e+03
1.928468e+03,6.801417e+03
1.939075e+03,6.744222e+03
1.949682e+03,6.692654e+03
1.960288e+03,6.620831e+03
1.970895e+03,6.562708e+03
1.981501e+03,6.493026e+03
1.992108e+03,6.416210e+03
2.002714e+03,6.369026e+03
2.013321e+03,6.321194e+03
2.023927e+03,6.209755e+03
2.034534e+03,6.205925e+03
2.045141e+03,6.119529e+03
2.055747e+03,6.053644e+03
2.066354e+03,5.987750e+03
2.076960e+03,5.947202e+03
2.087567e+03,5.865995e+03
2.098173e+03,5.843781e+03
2.108780e+03,5.773669e+03
2.119387e+03,5.726024e+03
2.129993e+03,5.612663e+03
2.140600e+03,5.524738e+03
2.151206e+03,5.518243e+03
2.161813e+03,5.479864e+03
2.172419e+03,5.411805e+03
2.183026e+03,5.305290e+03
2.193633e+03,5.239632e+03
2.204239e+03,5.237696e+03
2.214846e+03,5.175164e+03
2.225452e+03,5.030049e+03
2.236059e+03,5.046724e+03
2.246666e+03,4.936479e+03
2.257272e+03,4.889369e+03
2.267879e+03,4.858412e+03
2.278485e+03,4.800009e+03
2.289092e+03,4.704407e+03
2.299698e+03,4.703338e+03
2.310305e+03,4.598766e+03
2.320911e+03,4.570913e+03
2.331518e+03,4.508178e+03
2.342125e+03,4.472340e+03
2.352731e+03,4.399852e+03
2.363338e+03,4.320269e+03
2.373944e+03,4.309676e+03
2.384551e+03,4.239940e+03
2.395157e+03,4.199623e+03
2.405764e+03,4.158056e+03
2.416370e+03,4.061302e+03
2.426977e+03,4.024578e+03
2.437584e+03,3.998656e+03
2.448190e+03,3.941308e+03
2.458797e+03,3.907830e+03
2.469403e+03,3.821873e+03
2.480010e+03,3.823364e+03
2.490616e+03,3.762831e+03
2.501223e+03,3.722395e+03
2.511830e+03,3.679590e+03
2.522436e+03,3.622749e+03
2.533043e+03,3.619843e+03
2.543649e+03,3.581954e+03
2.554256e+03,3.515007e+03
2.564863e+03,3.501765e+03
2.575469e+03,3.448703e+03
2.586075e+03,3.408378e+03
2.596682e+03,3.363449e+03
2.607289e+03,3.323149e+03
2.617895e+03,3.294398e+03
2.628502e+03,3.260628e+03
2.639108e+03,3.214712e+03
2.649715e+03,3.228424e+03
2.660322e+03,3.157386e+03
2.670928e+03,3.153046e+03
2.681535e+03,3.132573e+03
2.692141e+03,3.047335e+03
2.702748e+03,3.044842e+03
2.713354e+03,3.011309e+03
2.723961e+03,2.968595e+03
2.734568e+03,2.965678e+03
2.745174e+03,2.959204e+03
2.755781e+03,2.895827e+03
2.766387e+03,2.872415e+03
2.776994e+03,2.862972e+03
2.787600e+03,2.786670e+03
2.798207e+03,2.801854e+03
2.808813e+03,2.794203e+03
2.819420e+03,2.748723e+03
2.830027e+03,2.720284e+03
2.840633e+03,2.654626e+03
2.851240e+03,2.646526e+03
2.861846e+03,2.656428e+03
2.872453e+03,2.659892e+03
2.883059e+03,2.613975e+03
2.893666e+03,2.609570e+03
2.904273e+03,2.602469e+03
2.914879e+03,2.567433e+03
2.925486e+03,2.558766e+03
2.936092e+03,2.539783e+03
2.946699e+03,2.506814e+03
2.957305e+03,2.532233e+03
2.967912e+03,2.458311e+03
2.978519e+03,2.435559e+03
2.989125e+03,2.414658e+03
2.999732e+03,2.408583e+03
3.010338e+03,2.400981e+03
3.020945e+03,2.387357e+03
3.031552e+03,2.329972e+03
3.042158e+03,2.371549e+03
3.052764e+03,2.341529e+03
3.063371e+03,2.331524e+03
3.073978e+03,2.300421e+03
3.084584e+03,2.268201e+03
3.095191e+03,2.310735e+03
3.105797e+03,2.287395e+03
3.116404e+03,2.299777e+03
3.127010e+03,2.250643e+03
3.137617e+03,2.264219e+03
3.148224e+03,2.199446e+03
3.158830e+03,2.241096e+03
3.169437e+03,2.215940e+03
3.180043e+03,2.226290e+03
3.190650e+03,2.224959e+03
3.200292e+03,2.291911e+03

File: blue fibre11.CSV
1.995979e+02,2.366311e+03
2.102045e+02,2.361926e+03
2.208110e+02,2.370725e+03
2.314176e+02,2.376292e+03
2.420242e+02,2.390886e+03
2.526307e+02,2.382916e+03
2.632373e+02,2.395538e+03
2.738439e+02,2.371760e+03
2.844504e+02,2.398453e+03
2.950570e+02,2.385792e+03
3.056636e+02,2.391746e+03
3.162701e+02,2.405228e+03
3.268767e+02,2.412269e+03
3.374833e+02,2.386060e+03
3.480898e+02,2.400591e+03
3.586964e+02,2.398865e+03
3.693030e+02,2.390190e+03
3.799095e+02,2.425446e+03
3.905161e+02,2.383944e+03
4.011227e+02,2.380057e+03
4.117292e+02,2.378776e+03
4.223358e+02,2.368998e+03
4.329424e+02,2.365929e+03
4.435490e+02,2.368360e+03
4.541555e+02,2.357116e+03
4.647621e+02,2.340278e+03
4.753687e+02,2.333939e+03
4.859752e+02,2.318267e+03
4.965818e+02,2.323465e+03
5.071884e+02,2.316446e+03
5.177949e+02,2.306894e+03
5.284015e+02,2.299593e+03
5.390081e+02,2.259402e+03
5.496146e+02,2.277094e+03
5.602212e+02,2.266330e+03
5.708278e+02,2.252849e+03
5.814343e+02,2.248768e+03
5.920409e+02,2.237553e+03
6.026475e+02,2.217302e+03
6.132540e+02,2.206039e+03
6.238606e+02,2.216806e+03
6.344672e+02,2.192456e+03
6.450737e+02,2.191961e+03
6.556803e+02,2.179306e+03
6.662869e+02,2.151391e+03
6.768934e+02,2.147068e+03
6.875000e+02,2.127614e+03
6.981066e+02,2.133585e+03
7.087131e+02,2.112025e+03
7.193197e+02,2.108411e+03
7.299263e+02,2.096337e+03
7.405328e+02,2.072003e+03
7.511394e+02,2.058953e+03
7.617460e+02,2.038329e+03
7.723525e+02,2.039289e+03
7.829591e+02,2.028501e+03
7.935657e+02,2.011646e+03
8.041722e+02,2.000531e+03
8.147788e+02,1.982711e+03
8.253854e+02,1.979361e+03
8.359919e+02,1.961063e+03
8.465985e+02,1.956050e+03
8.572051e+02,1.931320e+03
8.678116e+02,1.926706e+03
8.784182e+02,1.919759e+03
8.890248e+02,1.918841e+03
8.996313e+02,1.885226e+03
9.102379e+02,1.875193e+03
9.208445e+02,1.836578e+03
9.314510e+02,1.844532e+03
9.420576e+02,1.825105e+03
9.526642e+02,1.824456e+03
9.632708e+02,1.822704e+03
9.738773e+02,1.789069e+03
9.844839e+02,1.779617e+03
9.950905e+02,1.776254e+03
1.005697e+03,1.755452e+03
1.016304e+03,1.748460e+03
1.026910e+03,1.740206e+03
1.037517e+03,1.737429e+03
1.048123e+03,1.712705e+03
1.058730e+03,1.703802e+03
1.069336e+03,1.688616e+03
1.079943e+03,1.682525e+03
1.090550e+03,1.711591e+03
1.101156e+03,1.685609e+03
1.111763e+03,1.676618e+03
1.122369e+03,1.658545e+03
1.132976e+03,1.616940e+03
1.143582e+03,1.637121e+03
1.154189e+03,1.607514e+03
1.164796e+03,1.594046e+03
1.175402e+03,1.566498e+03
1.186009e+03,1.567335e+03
1.196615e+03,1.556294e+03
1.207222e+03,1.546855e+03
1.217828e+03,1.527351e+03
1.228435e+03,1.531179e+03
1.239042e+03,1.524675e+03
1.249648e+03,1.512103e+03
1.260255e+03,1.492492e+03
1.270861e+03,1.499974e+03
1.281468e+03,1.479368e+03
1.292074e+03,1.478313e+03
1.302681e+03,1.454130e+03
1.313287e+03,1.453130e+03
1.323894e+03,1.463904e+03
1.334501e+03,1.448495e+03
1.345107e+03,1.426536e+03
1.355714e+03,1.420377e+03
1.366320e+03,1.423305e+03
1.376927e+03,1.416951e+03
1.387533e+03,1.389774e+03
1.398140e+03,1.390410e+03
1.408747e+03,1.374334e+03
1.419353e+03,1.366507e+03
1.429960e+03,1.354664e+03
1.440566e+03,1.344892e+03
1.451173e+03,1.319850e+03
1.461779e+03,1.327551e+03
1.472386e+03,1.311404e+03
1.482993e+03,1.292328e+03
1.493599e+03,1.281968e+03
1.504206e+03,1.278099e+03
1.514812e+03,1.266995e+03
1.525419e+03,1.261115e+03
1.536025e+03,1.272718e+03
1.546632e+03,1.243924e+03
1.557239e+03,1.249091e+03
1.567845e+03,1.230680e+03
1.578452e+03,1.222425e+03
1.589058e+03,1.213427e+03
1.599665e+03,1.193293e+03
1.610271e+03,1.200739e+03
1.620878e+03,1.188840e+03
1.631484e+03,1.178303e+03
1.642091e+03,1.165782e+03
1.652698e+03,1.169105e+03
1.663304e+03,1.152464e+03
1.673911e+03,1.145555e+03
1.684517e+03,1.130317e+03
1.695124e+03,1.118584e+03
1.705730e+03,1.129188e+03
1.716337e+03,1.094070e+03
1.726944e+03,1.088453e+03
1.737550e+03,1.092821e+03
1.748157e+03,1.076100e+03
1.758763e+03,1.063596e+03
1.769370e+03,1.059917e+03
1.779976e+03,1.042006e+03
1.790583e+03,1.037614e+03
1.801190e+03,1.035532e+03
1.811796e+03,1.030081e+03
1.822403e+03,1.007813e+03
1.833009e+03,9.933082e+02
1.843616e+03,1.000654e+03
1.854222e+03,9.883405e+02
1.864829e+03,9.692051e+02
1.875436e+03,9.683703e+02
1.886042e+03,9.519366e+02
1.896649e+03,9.457789e+02
1.907255e+03,9.343040e+02
1.917862e+03,9.324142e+02
1.928468e+03,9.143066e+02
1.939075e+03,9.110592e+02
1.949682e+03,9.000948e+02
1.960288e+03,8.920192e+02
1.970895e+03,8.823478e+02
1.981501e+03,8.696208e+02
1.992108e+03,8.699203e+02
2.002714e+03,8.546877e+02
2.013321e+03,8.404648e+02
2.023927e+03,8.405214e+02
2.034534e+03,8.282405e+02
2.045141e+03,8.229649e+02
2.055747e+03,8.037178e+02
2.066354e+03,8.003625e+02
2.076960e+03,8.008801e+02
2.087567e+03,7.784792e+02
2.098173e+03,7.877827e+02
2.108780e+03,7.687500e+02
2.119387e+03,7.557112e+02
2.129993e+03,7.394698e+02
2.140600e+03,7.488899e+02
2.151206e+03,7.396915e+02
2.161813e+03,7.214026e+02
2.172419e+03,7.052138e+02
2.183026e+03,7.085332e+02
2.193633e+03,6.938561e+02
2.204239e+03,6.937123e+02
2.214846e+03,6.944828e+02
2.225452e+03,6.792271e+02
2.236059e+03,6.642359e+02
2.246666e+03,6.633762e+02
2.257272e+03,6.539854e+02
2.267879e+03,6.434700e+02
2.278485e+03,6.448876e+02
2.289092e+03,6.207546e+02
2.299698e+03,6.280559e+02
2.310305e+03,6.142393e+02
2.320911e+03,6.109055e+02
2.331518e+03,5.989720e+02
2.342125e+03,5.874488e+02
2.352731e+03,5.865676e+02
2.363338e+03,5.891757e+02
2.373944e+03,5.784778e+02
2.384551e+03,5.627343e+02
2.395157e+03,5.584471e+02
2.405764e+03,5.662490e+02
2.416370e+03,5.457022e+02
2.426977e+03,5.415798e+02
2.437584e+03,5.395668e+02
2.448190e+03,5.336151e+02
2.458797e+03,5.207859e+02
2.469403e+03,5.177783e+02
2.480010e+03,5.082676e+02
2.490616e+03,5.094987e+02
2.501223e+03,4.950143e+02
2.511830e+03,4.982203e+02
2.522436e+03,4.818406e+02
2.533043e+03,4.877393e+02
2.543649e+03,4.877042e+02
2.554256e+03,4.875782e+02
2.564863e+03,4.773532e+02
2.575469e+03,4.768268e+02
2.586075e+03,4.584246e+02
2.596682e+03,4.672137e+02
2.607289e+03,4.431480e+02
2.617895e+03,4.536508e+02
2.628502e+03,4.524598e+02
2.639108e+03,4.471878e+02
2.649715e+03,4.332630e+02
2.660322e+03,4.425989e+02
2.670928e+03,4.364680e+02
2.681535e+03,4.207503e+02
2.692141e+03,4.216820e+02
2.702748e+03,4.322804e+02
2.713354e+03,4.221520e+02
2.723961e+03,4.179037e+02
2.734568e+03,4.130684e+02
2.745174e+03,4.201559e+02
2.755781e+03,4.128001e+02
2.766387e+03,3.935225e+02
2.776994e+03,4.028319e+02
2.787600e+03,3.789859e+02
2.798207e+03,4.108960e+02
2.808813e+03,3.911977e+02
2.819420e+03,3.816064e+02
2.830027e+03,3.935351e+02
2.840633e+03,3.793809e+02
2.851240e+03,3.998043e+02
2.861846e+03,4.087010e+02
2.872453e+03,4.033185e+02
2.883059e+03,4.034011e+02
2.893666e+03,4.179710e+02
2.904273e+03,4.247647e+02
2.914879e+03,4.031958e+02
2.925486e+03,3.816654e+02
2.936092e+03,3.751435e+02
2.946699e+03,3.836152e+02
2.957305e+03,4.185139e+02
2.967912e+03,3.689422e+02
2.978519e+03,3.566396e+02
2.989125e+03,3.490183e+02
2.999732e+03,3.362252e+02
3.010338e+03,3.414344e+02
3.020945e+03,3.436708e+02
3.031552e+03,3.274555e+02
3.042158e+03,3.502536e+02
3.052764e+03,3.430572e+02
3.063371e+03,3.453674e+02
3.073978e+03,3.276795e+02
3.084584e+03,3.333026e+02
3.095191e+03,3.522980e+02
3.105797e+03,3.318757e+02
3.116404e+03,3.636071e+02
3.127010e+03,3.443313e+02
3.137617e+03,3.754999e+02
3.148224e+03,3.284478e+02
3.158830e+03,3.395792e+02
3.169437e+03,3.611990e+02
3.180043e+03,3.310856e+02
3.190650e+03,3.285254e+02
3.200292e+03,3.444290e+02