Folder: Taff_Bargoed_microplastics_data/RAMAN_data/20012023_r3 (part 3)

File: black fibre9.CSV
9.931763e+01,0.000000e+00
1.108884e+02,0.000000e+00
1.224592e+02,0.000000e+00
1.340300e+02,0.000000e+00
1.456008e+02,0.000000e+00
1.571716e+02,0.000000e+00
1.687424e+02,0.000000e+00
1.803132e+02,0.000000e+00
1.918840e+02,0.000000e+00
2.034548e+02,5.826507e+03
2.150256e+02,5.819243e+03
2.265964e+02,5.818373e+03
2.381673e+02,5.848099e+03
2.497381e+02,5.837242e+03
2.613088e+02,5.854981e+03
2.728796e+02,5.846201e+03
2.844504e+02,5.877593e+03
2.960212e+02,5.861157e+03
3.075920e+02,5.861331e+03
3.191628e+02,5.857909e+03
3.307336e+02,5.860716e+03
3.423044e+02,5.845736e+03
3.538752e+02,5.858881e+03
3.654461e+02,5.826407e+03
3.770169e+02,5.823166e+03
3.885877e+02,5.810263e+03
4.001585e+02,5.756885e+03
4.117293e+02,5.754511e+03
4.233001e+02,5.760017e+03
4.348709e+02,5.756686e+03
4.464417e+02,5.706408e+03
4.580125e+02,5.692792e+03
4.695833e+02,5.672892e+03
4.811541e+02,5.638736e+03
4.927249e+02,5.590096e+03
5.042957e+02,5.578927e+03
5.158665e+02,5.557842e+03
5.274373e+02,5.534515e+03
5.390081e+02,5.511344e+03
5.505789e+02,5.468352e+03
5.621497e+02,5.448474e+03
5.737205e+02,5.447551e+03
5.852913e+02,5.397881e+03
5.968621e+02,5.373291e+03
6.084329e+02,5.336661e+03
6.200037e+02,5.295608e+03
6.315745e+02,5.280778e+03
6.431453e+02,5.263922e+03
6.547161e+02,5.249836e+03
6.662869e+02,5.211498e+03
6.778577e+02,5.157504e+03
6.894285e+02,5.127952e+03
7.009993e+02,5.116073e+03
7.125701e+02,5.058874e+03
7.241409e+02,5.027802e+03
7.357117e+02,5.012424e+03
7.472825e+02,4.988591e+03
7.588533e+02,4.945305e+03
7.704241e+02,4.893321e+03
7.819949e+02,4.855755e+03
7.935657e+02,4.861577e+03
8.051365e+02,4.782486e+03
8.167073e+02,4.774633e+03
8.282781e+02,4.765053e+03
8.398489e+02,4.720256e+03
8.514197e+02,4.692862e+03
8.629905e+02,4.676879e+03
8.745613e+02,4.636155e+03
8.861321e+02,4.622669e+03
8.977029e+02,4.573486e+03
9.092737e+02,4.532038e+03
9.208445e+02,4.489682e+03
9.324153e+02,4.480869e+03
9.439861e+02,4.432533e+03
9.555569e+02,4.386764e+03
9.671277e+02,4.367397e+03
9.786985e+02,4.353958e+03
9.902693e+02,4.333120e+03
1.001840e+03,4.303330e+03
1.013411e+03,4.271393e+03
1.024982e+03,4.246396e+03
1.036552e+03,4.242299e+03
1.048123e+03,4.214140e+03
1.059694e+03,4.189358e+03
1.071265e+03,4.203491e+03
1.082836e+03,4.205869e+03
1.094406e+03,4.202580e+03
1.105977e+03,4.146893e+03
1.117548e+03,4.143646e+03
1.129119e+03,4.112974e+03
1.140690e+03,4.101306e+03
1.152261e+03,4.118182e+03
1.163831e+03,4.112535e+03
1.175402e+03,4.053828e+03
1.186973e+03,3.986226e+03
1.198544e+03,3.986515e+03
1.210115e+03,3.982598e+03
1.221685e+03,3.920712e+03
1.233256e+03,3.899943e+03
1.244827e+03,3.906885e+03
1.256398e+03,3.871232e+03
1.267969e+03,3.860786e+03
1.279539e+03,3.883678e+03
1.291110e+03,3.897884e+03
1.302681e+03,3.870085e+03
1.314252e+03,3.897349e+03
1.325823e+03,3.921027e+03
1.337393e+03,3.884042e+03
1.348964e+03,3.832304e+03
1.360535e+03,3.757836e+03
1.372106e+03,3.742109e+03
1.383677e+03,3.725878e+03
1.395247e+03,3.700564e+03
1.406818e+03,3.649880e+03
1.418389e+03,3.643940e+03
1.429960e+03,3.642000e+03
1.441531e+03,3.613710e+03
1.453101e+03,3.583461e+03
1.464672e+03,3.565592e+03
1.476243e+03,3.547027e+03
1.487814e+03,3.515210e+03
1.499385e+03,3.493852e+03
1.510955e+03,3.461769e+03
1.522526e+03,3.448678e+03
1.534097e+03,3.444229e+03
1.545668e+03,3.431082e+03
1.557239e+03,3.430323e+03
1.568809e+03,3.417733e+03
1.580380e+03,3.424002e+03
1.591951e+03,3.359835e+03
1.603522e+03,3.364688e+03
1.615093e+03,3.406684e+03
1.626663e+03,3.276921e+03
1.638234e+03,3.239756e+03
1.649805e+03,3.198682e+03
1.661376e+03,3.171117e+03
1.672947e+03,3.132757e+03
1.684517e+03,3.109482e+03
1.696088e+03,3.092314e+03
1.707659e+03,3.060068e+03
1.719230e+03,3.075279e+03
1.730801e+03,3.055738e+03
1.742371e+03,2.996617e+03
1.753942e+03,2.959880e+03
1.765513e+03,2.929977e+03
1.777084e+03,2.905919e+03
1.788655e+03,2.875636e+03
1.800225e+03,2.837079e+03
1.811796e+03,2.819272e+03
1.823367e+03,2.787813e+03
1.834938e+03,2.763980e+03
1.846509e+03,2.752361e+03
1.858079e+03,2.731425e+03
1.869650e+03,2.687806e+03
1.881221e+03,2.636254e+03
1.892792e+03,2.630298e+03
1.904363e+03,2.585539e+03
1.915933e+03,2.557787e+03
1.927504e+03,2.573642e+03
1.939075e+03,2.536141e+03
1.950646e+03,2.482308e+03
1.962217e+03,2.471143e+03
1.973787e+03,2.447504e+03
1.985358e+03,2.404424e+03
1.996929e+03,2.366769e+03
2.008500e+03,2.342765e+03
2.020071e+03,2.316302e+03
2.031641e+03,2.298793e+03
2.043212e+03,2.280282e+03
2.054783e+03,2.250570e+03
2.066354e+03,2.242620e+03
2.077925e+03,2.221079e+03
2.089496e+03,2.175666e+03
2.101066e+03,2.140562e+03
2.112637e+03,2.112722e+03
2.124208e+03,2.116476e+03
2.135779e+03,2.064631e+03
2.147350e+03,2.043096e+03
2.158920e+03,2.010931e+03
2.170491e+03,2.020473e+03
2.182062e+03,1.964001e+03
2.193633e+03,1.951661e+03
2.205204e+03,1.942931e+03
2.216774e+03,1.915279e+03
2.228345e+03,1.875565e+03
2.239916e+03,1.840394e+03
2.251487e+03,1.832941e+03
2.263058e+03,1.820992e+03
2.274628e+03,1.790098e+03
2.286199e+03,1.789742e+03
2.297770e+03,1.780027e+03
2.309341e+03,1.729408e+03
2.320912e+03,1.706242e+03
2.332482e+03,1.697558e+03
2.344053e+03,1.700455e+03
2.355624e+03,1.673542e+03
2.367195e+03,1.636103e+03
2.378766e+03,1.631628e+03
2.390336e+03,1.607597e+03
2.401907e+03,1.596704e+03
2.413478e+03,1.555604e+03
2.425049e+03,1.554674e+03
2.436620e+03,1.542628e+03
2.448190e+03,1.535636e+03
2.459761e+03,1.503782e+03
2.471332e+03,1.464716e+03
2.482903e+03,1.482554e+03
2.494474e+03,1.459250e+03
2.506044e+03,1.425416e+03
2.517615e+03,1.455399e+03
2.529186e+03,1.403696e+03
2.540757e+03,1.395492e+03
2.552328e+03,1.381248e+03
2.563898e+03,1.375222e+03
2.575469e+03,1.396906e+03
2.587040e+03,1.348029e+03
2.598611e+03,1.361622e+03
2.610182e+03,1.328652e+03
2.621752e+03,1.341402e+03
2.633323e+03,1.315654e+03
2.644894e+03,1.314112e+03
2.656465e+03,1.294297e+03
2.668036e+03,1.271293e+03
2.679606e+03,1.241939e+03
2.691177e+03,1.262434e+03
2.702748e+03,1.225692e+03
2.714319e+03,1.241872e+03
2.725890e+03,1.211597e+03
2.737460e+03,1.202828e+03
2.749031e+03,1.182238e+03
2.760602e+03,1.166443e+03
2.772173e+03,1.180855e+03
2.783744e+03,1.157946e+03
2.795314e+03,1.159841e+03
2.806885e+03,1.145305e+03
2.818456e+03,1.131534e+03
2.830027e+03,1.127144e+03
2.841598e+03,1.129237e+03
2.853168e+03,1.143228e+03
2.864739e+03,1.117857e+03
2.876310e+03,1.125951e+03
2.887881e+03,1.154680e+03
2.899452e+03,1.120894e+03
2.911022e+03,1.109860e+03
2.922593e+03,1.060660e+03
2.934164e+03,1.073160e+03
2.945735e+03,1.070512e+03
2.957306e+03,1.137413e+03
2.968876e+03,1.056305e+03
2.980447e+03,1.032062e+03
2.992018e+03,1.054470e+03
3.003589e+03,1.056428e+03
3.015160e+03,1.005918e+03
3.026730e+03,9.781734e+02
3.038301e+03,9.900061e+02
3.049872e+03,1.012214e+03
3.061443e+03,9.927334e+02
3.073014e+03,9.986770e+02
3.084584e+03,9.765038e+02
3.096155e+03,9.730858e+02
3.107726e+03,9.543359e+02
3.119297e+03,9.797386e+02
3.130868e+03,9.931299e+02
3.142438e+03,9.880699e+02
3.154009e+03,9.942190e+02
3.165580e+03,9.885958e+02
3.177151e+03,9.496857e+02
3.188722e+03,9.642089e+02
3.200292e+03,9.680911e+02
3.211863e+03,0.000000e+00
3.223434e+03,0.000000e+00
3.235005e+03,0.000000e+00
3.246576e+03,0.000000e+00
3.258146e+03,0.000000e+00
3.269717e+03,0.000000e+00
3.281288e+03,0.000000e+00
3.292859e+03,0.000000e+00
3.304430e+03,0.000000e+00
3.316000e+03,0.000000e+00
3.327571e+03,0.000000e+00
3.339142e+03,0.000000e+00
3.350713e+03,0.000000e+00
3.362284e+03,0.000000e+00
3.373854e+03,0.000000e+00
3.385425e+03,0.000000e+00
3.396996e+03,0.000000e+00
3.408567e+03,0.000000e+00
3.420138e+03,0.000000e+00
3.431708e+03,0.000000e+00
3.443279e+03,0.000000e+00
3.454850e+03,0.000000e+00
3.466421e+03,0.000000e+00
3.477992e+03,0.000000e+00
3.489563e+03,0.000000e+00
3.500169e+03,0.000000e+00

File: black fibre10.CSV
9.931763e+01,0.000000e+00
1.108884e+02,0.000000e+00
1.224592e+02,0.000000e+00
1.340300e+02,0.000000e+00
1.456008e+02,0.000000e+00
1.571716e+02,0.000000e+00
1.687424e+02,0.000000e+00
1.803132e+02,0.000000e+00
1.918840e+02,0.000000e+00
2.034548e+02,4.798566e+03
2.150256e+02,4.817632e+03
2.265964e+02,4.849642e+03
2.381673e+02,4.880743e+03
2.497381e+02,4.906776e+03
2.613088e+02,4.902205e+03
2.728796e+02,4.914092e+03
2.844504e+02,4.946818e+03
2.960212e+02,4.958345e+03
3.075920e+02,4.952773e+03
3.191628e+02,4.967034e+03
3.307336e+02,4.985769e+03
3.423044e+02,4.985568e+03
3.538752e+02,4.988714e+03
3.654461e+02,5.008243e+03
3.770169e+02,5.033221e+03
3.885877e+02,4.998205e+03
4.001585e+02,4.970898e+03
4.117293e+02,5.004119e+03
4.233001e+02,4.998633e+03
4.348709e+02,5.005148e+03
4.464417e+02,4.990579e+03
4.580125e+02,4.982375e+03
4.695833e+02,4.969683e+03
4.811541e+02,4.967386e+03
4.927249e+02,4.985950e+03
5.042957e+02,4.964126e+03
5.158665e+02,4.957826e+03
5.274373e+02,4.947840e+03
5.390081e+02,4.918096e+03
5.505789e+02,4.881475e+03
5.621497e+02,4.875419e+03
5.737205e+02,4.859611e+03
5.852913e+02,4.874515e+03
5.968621e+02,4.874329e+03
6.084329e+02,4.837914e+03
6.200037e+02,4.817494e+03
6.315745e+02,4.804935e+03
6.431453e+02,4.771604e+03
6.547161e+02,4.784649e+03
6.662869e+02,4.754798e+03
6.778577e+02,4.728420e+03
6.894285e+02,4.709569e+03
7.009993e+02,4.686006e+03
7.125701e+02,4.691125e+03
7.241409e+02,4.652534e+03
7.357117e+02,4.627394e+03
7.472825e+02,4.608682e+03
7.588533e+02,4.583630e+03
7.704241e+02,4.566994e+03
7.819949e+02,4.554423e+03
7.935657e+02,4.515308e+03
8.051365e+02,4.517594e+03
8.167073e+02,4.483412e+03
8.282781e+02,4.481206e+03
8.398489e+02,4.455921e+03
8.514197e+02,4.417756e+03
8.629905e+02,4.412604e+03
8.745613e+02,4.395209e+03
8.861321e+02,4.385979e+03
8.977029e+02,4.345517e+03
9.092737e+02,4.334514e+03
9.208445e+02,4.297098e+03
9.324153e+02,4.284937e+03
9.439861e+02,4.278427e+03
9.555569e+02,4.220970e+03
9.671277e+02,4.219103e+03
9.786985e+02,4.208409e+03
9.902693e+02,4.171043e+03
1.001840e+03,4.141808e+03
1.013411e+03,4.146177e+03
1.024982e+03,4.129659e+03
1.036552e+03,4.110207e+03
1.048123e+03,4.082355e+03
1.059694e+03,4.069896e+03
1.071265e+03,4.086097e+03
1.082836e+03,4.057977e+03
1.094406e+03,4.071125e+03
1.105977e+03,4.026705e+03
1.117548e+03,4.043412e+03
1.129119e+03,4.027635e+03
1.140690e+03,4.007560e+03
1.152261e+03,4.017266e+03
1.163831e+03,3.970565e+03
1.175402e+03,3.940665e+03
1.186973e+03,3.942812e+03
1.198544e+03,3.937480e+03
1.210115e+03,3.904262e+03
1.221685e+03,3.912370e+03
1.233256e+03,3.877719e+03
1.244827e+03,3.885629e+03
1.256398e+03,3.853781e+03
1.267969e+03,3.837847e+03
1.279539e+03,3.864798e+03
1.291110e+03,3.861010e+03
1.302681e+03,3.813202e+03
1.314252e+03,3.802043e+03
1.325823e+03,3.781469e+03
1.337393e+03,3.823445e+03
1.348964e+03,3.801628e+03
1.360535e+03,3.759497e+03
1.372106e+03,3.755124e+03
1.383677e+03,3.742328e+03
1.395247e+03,3.683652e+03
1.406818e+03,3.695104e+03
1.418389e+03,3.677762e+03
1.429960e+03,3.656488e+03
1.441531e+03,3.616642e+03
1.453101e+03,3.591946e+03
1.464672e+03,3.597587e+03
1.476243e+03,3.580715e+03
1.487814e+03,3.562785e+03
1.499385e+03,3.526325e+03
1.510955e+03,3.517362e+03
1.522526e+03,3.514027e+03
1.534097e+03,3.488920e+03
1.545668e+03,3.457171e+03
1.557239e+03,3.484071e+03
1.568809e+03,3.509280e+03
1.580380e+03,3.480212e+03
1.591951e+03,3.444895e+03
1.603522e+03,3.436273e+03
1.615093e+03,3.378685e+03
1.626663e+03,3.342694e+03
1.638234e+03,3.299946e+03
1.649805e+03,3.287214e+03
1.661376e+03,3.280101e+03
1.672947e+03,3.242037e+03
1.684517e+03,3.244051e+03
1.696088e+03,3.218770e+03
1.707659e+03,3.189022e+03
1.719230e+03,3.170918e+03
1.730801e+03,3.113649e+03
1.742371e+03,3.112705e+03
1.753942e+03,3.116261e+03
1.765513e+03,3.071478e+03
1.777084e+03,3.053286e+03
1.788655e+03,3.036030e+03
1.800225e+03,3.002860e+03
1.811796e+03,2.977608e+03
1.823367e+03,2.956390e+03
1.834938e+03,2.954628e+03
1.846509e+03,2.919305e+03
1.858079e+03,2.894302e+03
1.869650e+03,2.877738e+03
1.881221e+03,2.845824e+03
1.892792e+03,2.827493e+03
1.904363e+03,2.791938e+03
1.915933e+03,2.775213e+03
1.927504e+03,2.742300e+03
1.939075e+03,2.740865e+03
1.950646e+03,2.695198e+03
1.962217e+03,2.678431e+03
1.973787e+03,2.671649e+03
1.985358e+03,2.640229e+03
1.996929e+03,2.602763e+03
2.008500e+03,2.580040e+03
2.020071e+03,2.578393e+03
2.031641e+03,2.546191e+03
2.043212e+03,2.517793e+03
2.054783e+03,2.489288e+03
2.066354e+03,2.458662e+03
2.077925e+03,2.433885e+03
2.089496e+03,2.419809e+03
2.101066e+03,2.401372e+03
2.112637e+03,2.388926e+03
2.124208e+03,2.337588e+03
2.135779e+03,2.328400e+03
2.147350e+03,2.281897e+03
2.158920e+03,2.282623e+03
2.170491e+03,2.264667e+03
2.182062e+03,2.221598e+03
2.193633e+03,2.199007e+03
2.205204e+03,2.199657e+03
2.216774e+03,2.164292e+03
2.228345e+03,2.151926e+03
2.239916e+03,2.113538e+03
2.251487e+03,2.092840e+03
2.263058e+03,2.073578e+03
2.274628e+03,2.066023e+03
2.286199e+03,2.022379e+03
2.297770e+03,2.027149e+03
2.309341e+03,2.003876e+03
2.320912e+03,1.967212e+03
2.332482e+03,1.940449e+03
2.344053e+03,1.928171e+03
2.355624e+03,1.907229e+03
2.367195e+03,1.887205e+03
2.378766e+03,1.870086e+03
2.390336e+03,1.870679e+03
2.401907e+03,1.850991e+03
2.413478e+03,1.823897e+03
2.425049e+03,1.803221e+03
2.436620e+03,1.791695e+03
2.448190e+03,1.770137e+03
2.459761e+03,1.752479e+03
2.471332e+03,1.751917e+03
2.482903e+03,1.741857e+03
2.494474e+03,1.716253e+03
2.506044e+03,1.684813e+03
2.517615e+03,1.697445e+03
2.529186e+03,1.663595e+03
2.540757e+03,1.676477e+03
2.552328e+03,1.631249e+03
2.563898e+03,1.636643e+03
2.575469e+03,1.641578e+03
2.587040e+03,1.593854e+03
2.598611e+03,1.572300e+03
2.610182e+03,1.554745e+03
2.621752e+03,1.569849e+03
2.633323e+03,1.542857e+03
2.644894e+03,1.549836e+03
2.656465e+03,1.529543e+03
2.668036e+03,1.504349e+03
2.679606e+03,1.490699e+03
2.691177e+03,1.494542e+03
2.702748e+03,1.494775e+03
2.714319e+03,1.450053e+03
2.725890e+03,1.456108e+03
2.737460e+03,1.432698e+03
2.749031e+03,1.454924e+03
2.760602e+03,1.404343e+03
2.772173e+03,1.392278e+03
2.783744e+03,1.392589e+03
2.795314e+03,1.365986e+03
2.806885e+03,1.358432e+03
2.818456e+03,1.382139e+03
2.830027e+03,1.375271e+03
2.841598e+03,1.348138e+03
2.853168e+03,1.349309e+03
2.864739e+03,1.331421e+03
2.876310e+03,1.327971e+03
2.887881e+03,1.357439e+03
2.899452e+03,1.302585e+03
2.911022e+03,1.327862e+03
2.922593e+03,1.299801e+03
2.934164e+03,1.300727e+03
2.945735e+03,1.278869e+03
2.957306e+03,1.280191e+03
2.968876e+03,1.242878e+03
2.980447e+03,1.225201e+03
2.992018e+03,1.232415e+03
3.003589e+03,1.219370e+03
3.015160e+03,1.233295e+03
3.026730e+03,1.202654e+03
3.038301e+03,1.232374e+03
3.049872e+03,1.188738e+03
3.061443e+03,1.202800e+03
3.073014e+03,1.164490e+03
3.084584e+03,1.155838e+03
3.096155e+03,1.180004e+03
3.107726e+03,1.162396e+03
3.119297e+03,1.115030e+03
3.130868e+03,1.146278e+03
3.142438e+03,1.129226e+03
3.154009e+03,1.158277e+03
3.165580e+03,1.169125e+03
3.177151e+03,1.134525e+03
3.188722e+03,1.153830e+03
3.200292e+03,1.135836e+03
3.211863e+03,0.000000e+00
3.223434e+03,0.000000e+00
3.235005e+03,0.000000e+00
3.246576e+03,0.000000e+00
3.258146e+03,0.000000e+00
3.269717e+03,0.000000e+00
3.281288e+03,0.000000e+00
3.292859e+03,0.000000e+00
3.304430e+03,0.000000e+00
3.316000e+03,0.000000e+00
3.327571e+03,0.000000e+00
3.339142e+03,0.000000e+00
3.350713e+03,0.000000e+00
3.362284e+03,0.000000e+00
3.373854e+03,0.000000e+00
3.385425e+03,0.000000e+00
3.396996e+03,0.000000e+00
3.408567e+03,0.000000e+00
3.420138e+03,0.000000e+00
3.431708e+03,0.000000e+00
3.443279e+03,0.000000e+00
3.454850e+03,0.000000e+00
3.466421e+03,0.000000e+00
3.477992e+03,0.000000e+00
3.489563e+03,0.000000e+00
3.500169e+03,0.000000e+00

File: black fibre11.CSV
9.931763e+01,0.000000e+00
1.108884e+02,0.000000e+00
1.224592e+02,0.000000e+00
1.340300e+02,0.000000e+00
1.456008e+02,0.000000e+00
1.571716e+02,0.000000e+00
1.687424e+02,0.000000e+00
1.803132e+02,0.000000e+00
1.918840e+02,0.000000e+00
2.034548e+02,1.071704e+03
2.150256e+02,1.082247e+03
2.265964e+02,1.077719e+03
2.381673e+02,1.089001e+03
2.497381e+02,1.096347e+03
2.613088e+02,1.096807e+03
2.728796e+02,1.109322e+03
2.844504e+02,1.114149e+03
2.960212e+02,1.112419e+03
3.075920e+02,1.114977e+03
3.191628e+02,1.116813e+03
3.307336e+02,1.120772e+03
3.423044e+02,1.135654e+03
3.538752e+02,1.128121e+03
3.654461e+02,1.130162e+03
3.770169e+02,1.150801e+03
3.885877e+02,1.129646e+03
4.001585e+02,1.128366e+03
4.117293e+02,1.130281e+03
4.233001e+02,1.128744e+03
4.348709e+02,1.144865e+03
4.464417e+02,1.126182e+03
4.580125e+02,1.142020e+03
4.695833e+02,1.138610e+03
4.811541e+02,1.136290e+03
4.927249e+02,1.127614e+03
5.042957e+02,1.124936e+03
5.158665e+02,1.143602e+03
5.274373e+02,1.132444e+03
5.390081e+02,1.124469e+03
5.505789e+02,1.119541e+03
5.621497e+02,1.124549e+03
5.737205e+02,1.116483e+03
5.852913e+02,1.124553e+03
5.968621e+02,1.120834e+03
6.084329e+02,1.108041e+03
6.200037e+02,1.102405e+03
6.315745e+02,1.107610e+03
6.431453e+02,1.097251e+03
6.547161e+02,1.106109e+03
6.662869e+02,1.110975e+03
6.778577e+02,1.103138e+03
6.894285e+02,1.099576e+03
7.009993e+02,1.091755e+03
7.125701e+02,1.095178e+03
7.241409e+02,1.088425e+03
7.357117e+02,1.089368e+03
7.472825e+02,1.076139e+03
7.588533e+02,1.077923e+03
7.704241e+02,1.077001e+03
7.819949e+02,1.069036e+03
7.935657e+02,1.065603e+03
8.051365e+02,1.068636e+03
8.167073e+02,1.064943e+03
8.282781e+02,1.052138e+03
8.398489e+02,1.054717e+03
8.514197e+02,1.043007e+03
8.629905e+02,1.050600e+03
8.745613e+02,1.055325e+03
8.861321e+02,1.049618e+03
8.977029e+02,1.049450e+03
9.092737e+02,1.031085e+03
9.208445e+02,1.027885e+03
9.324153e+02,1.027545e+03
9.439861e+02,1.017370e+03
9.555569e+02,1.019990e+03
9.671277e+02,1.022924e+03
9.786985e+02,1.020545e+03
9.902693e+02,1.018445e+03
1.001840e+03,1.006666e+03
1.013411e+03,9.995964e+02
1.024982e+03,1.002197e+03
1.036552e+03,1.007148e+03
1.048123e+03,1.003326e+03
1.059694e+03,1.006772e+03
1.071265e+03,1.001551e+03
1.082836e+03,1.004567e+03
1.094406e+03,1.016511e+03
1.105977e+03,1.002253e+03
1.117548e+03,1.010476e+03
1.129119e+03,9.963082e+02
1.140690e+03,9.904899e+02
1.152261e+03,9.858453e+02
1.163831e+03,9.873297e+02
1.175402e+03,9.775680e+02
1.186973e+03,9.703033e+02
1.198544e+03,9.724252e+02
1.210115e+03,9.734102e+02
1.221685e+03,9.731984e+02
1.233256e+03,9.695323e+02
1.244827e+03,9.791152e+02
1.256398e+03,9.750764e+02
1.267969e+03,9.721256e+02
1.279539e+03,9.912844e+02
1.291110e+03,9.847455e+02
1.302681e+03,9.804248e+02
1.314252e+03,9.881212e+02
1.325823e+03,9.941702e+02
1.337393e+03,9.983773e+02
1.348964e+03,9.942438e+02
1.360535e+03,1.001723e+03
1.372106e+03,1.001739e+03
1.383677e+03,9.930710e+02
1.395247e+03,9.854728e+02
1.406818e+03,9.842894e+02
1.418389e+03,9.724976e+02
1.429960e+03,9.653503e+02
1.441531e+03,9.712589e+02
1.453101e+03,9.652526e+02
1.464672e+03,9.643661e+02
1.476243e+03,9.733858e+02
1.487814e+03,9.683480e+02
1.499385e+03,9.409563e+02
1.510955e+03,9.441443e+02
1.522526e+03,9.396674e+02
1.534097e+03,9.503871e+02
1.545668e+03,9.380584e+02
1.557239e+03,9.351522e+02
1.568809e+03,9.316710e+02
1.580380e+03,9.240701e+02
1.591951e+03,9.152551e+02
1.603522e+03,9.106415e+02
1.615093e+03,9.156823e+02
1.626663e+03,9.016015e+02
1.638234e+03,8.982922e+02
1.649805e+03,8.853216e+02
1.661376e+03,8.804576e+02
1.672947e+03,8.718096e+02
1.684517e+03,8.844492e+02
1.696088e+03,8.678487e+02
1.707659e+03,8.678200e+02
1.719230e+03,8.683407e+02
1.730801e+03,8.757411e+02
1.742371e+03,8.602282e+02
1.753942e+03,8.527337e+02
1.765513e+03,8.493925e+02
1.777084e+03,8.456329e+02
1.788655e+03,8.303530e+02
1.800225e+03,8.445377e+02
1.811796e+03,8.350260e+02
1.823367e+03,8.291708e+02
1.834938e+03,8.263820e+02
1.846509e+03,8.309908e+02
1.858079e+03,8.150636e+02
1.869650e+03,8.122396e+02
1.881221e+03,8.130916e+02
1.892792e+03,8.131365e+02
1.904363e+03,7.918009e+02
1.915933e+03,8.025075e+02
1.927504e+03,7.956996e+02
1.939075e+03,7.791363e+02
1.950646e+03,7.909907e+02
1.962217e+03,7.874539e+02
1.973787e+03,7.778368e+02
1.985358e+03,7.719319e+02
1.996929e+03,7.635852e+02
2.008500e+03,7.588591e+02
2.020071e+03,7.561249e+02
2.031641e+03,7.482688e+02
2.043212e+03,7.409153e+02
2.054783e+03,7.550305e+02
2.066354e+03,7.447105e+02
2.077925e+03,7.335632e+02
2.089496e+03,7.399601e+02
2.101066e+03,7.325843e+02
2.112637e+03,7.183671e+02
2.124208e+03,7.263559e+02
2.135779e+03,7.052045e+02
2.147350e+03,7.049149e+02
2.158920e+03,6.978467e+02
2.170491e+03,7.047018e+02
2.182062e+03,7.069704e+02
2.193633e+03,6.974777e+02
2.205204e+03,6.975865e+02
2.216774e+03,6.793043e+02
2.228345e+03,6.853087e+02
2.239916e+03,6.839435e+02
2.251487e+03,6.664828e+02
2.263058e+03,6.685311e+02
2.274628e+03,6.533080e+02
2.286199e+03,6.575494e+02
2.297770e+03,6.491696e+02
2.309341e+03,6.516407e+02
2.320912e+03,6.408231e+02
2.332482e+03,6.450401e+02
2.344053e+03,6.372926e+02
2.355624e+03,6.465922e+02
2.367195e+03,6.218709e+02
2.378766e+03,6.313204e+02
2.390336e+03,6.360627e+02
2.401907e+03,6.292992e+02
2.413478e+03,6.272618e+02
2.425049e+03,6.213262e+02
2.436620e+03,6.215711e+02
2.448190e+03,6.081532e+02
2.459761e+03,6.042459e+02
2.471332e+03,6.079521e+02
2.482903e+03,6.067752e+02
2.494474e+03,5.781003e+02
2.506044e+03,6.049872e+02
2.517615e+03,5.974929e+02
2.529186e+03,5.838766e+02
2.540757e+03,5.918126e+02
2.552328e+03,5.883497e+02
2.563898e+03,5.937385e+02
2.575469e+03,5.910549e+02
2.587040e+03,5.829649e+02
2.598611e+03,5.742315e+02
2.610182e+03,5.775129e+02
2.621752e+03,5.694263e+02
2.633323e+03,5.699662e+02
2.644894e+03,5.746984e+02
2.656465e+03,5.562758e+02
2.668036e+03,5.683138e+02
2.679606e+03,5.634755e+02
2.691177e+03,5.709919e+02
2.702748e+03,5.600681e+02
2.714319e+03,5.493178e+02
2.725890e+03,5.655967e+02
2.737460e+03,5.352037e+02
2.749031e+03,5.609500e+02
2.760602e+03,5.505938e+02
2.772173e+03,5.452766e+02
2.783744e+03,5.540212e+02
2.795314e+03,5.399240e+02
2.806885e+03,5.262150e+02
2.818456e+03,5.239145e+02
2.830027e+03,5.247789e+02
2.841598e+03,5.394590e+02
2.853168e+03,5.356695e+02
2.864739e+03,5.385131e+02
2.876310e+03,5.505026e+02
2.887881e+03,5.487272e+02
2.899452e+03,5.505530e+02
2.911022e+03,5.380781e+02
2.922593e+03,5.284447e+02
2.934164e+03,5.424720e+02
2.945735e+03,5.243159e+02
2.957306e+03,5.529512e+02
2.968876e+03,5.194943e+02
2.980447e+03,5.186080e+02
2.992018e+03,4.971374e+02
3.003589e+03,5.047009e+02
3.015160e+03,5.110796e+02
3.026730e+03,4.947764e+02
3.038301e+03,4.901129e+02
3.049872e+03,4.821333e+02
3.061443e+03,4.982294e+02
3.073014e+03,4.720967e+02
3.084584e+03,4.867519e+02
3.096155e+03,4.736776e+02
3.107726e+03,4.786416e+02
3.119297e+03,4.765314e+02
3.130868e+03,4.587007e+02
3.142438e+03,4.826172e+02
3.154009e+03,4.662076e+02
3.165580e+03,4.881836e+02
3.177151e+03,4.814873e+02
3.188722e+03,4.265576e+02
3.200292e+03,5.015397e+02
3.211863e+03,0.000000e+00
3.223434e+03,0.000000e+00
3.235005e+03,0.000000e+00
3.246576e+03,0.000000e+00
3.258146e+03,0.000000e+00
3.269717e+03,0.000000e+00
3.281288e+03,0.000000e+00
3.292859e+03,0.000000e+00
3.304430e+03,0.000000e+00
3.316000e+03,0.000000e+00
3.327571e+03,0.000000e+00
3.339142e+03,0.000000e+00
3.350713e+03,0.000000e+00
3.362284e+03,0.000000e+00
3.373854e+03,0.000000e+00
3.385425e+03,0.000000e+00
3.396996e+03,0.000000e+00
3.408567e+03,0.000000e+00
3.420138e+03,0.000000e+00
3.431708e+03,0.000000e+00
3.443279e+03,0.000000e+00
3.454850e+03,0.000000e+00
3.466421e+03,0.000000e+00
3.477992e+03,0.000000e+00
3.489563e+03,0.000000e+00
3.500169e+03,0.000000e+00