Folder: Taff_Bargoed_microplastics_data/RAMAN_data/20012023_r1 (part 8)

File: blue fibre15.CSV
1.995979e+02,5.990264e+03
2.102045e+02,6.069423e+03
2.208110e+02,6.144086e+03
2.314176e+02,6.194046e+03
2.420242e+02,6.296255e+03
2.526307e+02,6.425948e+03
2.632373e+02,6.496155e+03
2.738439e+02,6.598191e+03
2.844504e+02,6.729865e+03
2.950570e+02,6.690711e+03
3.056636e+02,6.708054e+03
3.162701e+02,6.792170e+03
3.268767e+02,6.852885e+03
3.374833e+02,6.893905e+03
3.480898e+02,6.941862e+03
3.586964e+02,6.998117e+03
3.693030e+02,7.042360e+03
3.799095e+02,7.109054e+03
3.905161e+02,7.152082e+03
4.011227e+02,7.157381e+03
4.117292e+02,7.207852e+03
4.223358e+02,7.255243e+03
4.329424e+02,7.289291e+03
4.435490e+02,7.332998e+03
4.541555e+02,7.377738e+03
4.647621e+02,7.336140e+03
4.753687e+02,7.371764e+03
4.859752e+02,7.391798e+03
4.965818e+02,7.427276e+03
5.071884e+02,7.467070e+03
5.177949e+02,7.502555e+03
5.284015e+02,7.503931e+03
5.390081e+02,7.546648e+03
5.496146e+02,7.647888e+03
5.602212e+02,7.778071e+03
5.708278e+02,7.547573e+03
5.814343e+02,7.519188e+03
5.920409e+02,7.550745e+03
6.026475e+02,7.600873e+03
6.132540e+02,7.686572e+03
6.238606e+02,7.515874e+03
6.344672e+02,7.490587e+03
6.450737e+02,7.450373e+03
6.556803e+02,7.464360e+03
6.662869e+02,7.422354e+03
6.768934e+02,7.454368e+03
6.875000e+02,7.449827e+03
6.981066e+02,7.356308e+03
7.087131e+02,7.328461e+03
7.193197e+02,7.348688e+03
7.299263e+02,7.269319e+03
7.405328e+02,7.242093e+03
7.511394e+02,7.247275e+03
7.617460e+02,7.243185e+03
7.723525e+02,7.165636e+03
7.829591e+02,7.190390e+03
7.935657e+02,7.184601e+03
8.041722e+02,7.065046e+03
8.147788e+02,7.024720e+03
8.253854e+02,6.998737e+03
8.359919e+02,6.975798e+03
8.465985e+02,6.941015e+03
8.572051e+02,6.874060e+03
8.678116e+02,6.836617e+03
8.784182e+02,6.780503e+03
8.890248e+02,6.778619e+03
8.996313e+02,6.707747e+03
9.102379e+02,6.626283e+03
9.208445e+02,6.580869e+03
9.314510e+02,6.529280e+03
9.420576e+02,6.492345e+03
9.526642e+02,6.447286e+03
9.632708e+02,6.431642e+03
9.738773e+02,6.330002e+03
9.844839e+02,6.325250e+03
9.950905e+02,6.278364e+03
1.005697e+03,6.222955e+03
1.016304e+03,6.158686e+03
1.026910e+03,6.109592e+03
1.037517e+03,6.105355e+03
1.048123e+03,6.050689e+03
1.058730e+03,6.025968e+03
1.069336e+03,5.999247e+03
1.079943e+03,5.995660e+03
1.090550e+03,5.938924e+03
1.101156e+03,5.870774e+03
1.111763e+03,5.804288e+03
1.122369e+03,5.756860e+03
1.132976e+03,5.710869e+03
1.143582e+03,5.667313e+03
1.154189e+03,5.598655e+03
1.164796e+03,5.557172e+03
1.175402e+03,5.502251e+03
1.186009e+03,5.475038e+03
1.196615e+03,5.460254e+03
1.207222e+03,5.364883e+03
1.217828e+03,5.329062e+03
1.228435e+03,5.307265e+03
1.239042e+03,5.278559e+03
1.249648e+03,5.197625e+03
1.260255e+03,5.159682e+03
1.270861e+03,5.135914e+03
1.281468e+03,5.052778e+03
1.292074e+03,5.061804e+03
1.302681e+03,5.011348e+03
1.313287e+03,4.971990e+03
1.323894e+03,4.935632e+03
1.334501e+03,4.931978e+03
1.345107e+03,4.875368e+03
1.355714e+03,4.846289e+03
1.366320e+03,4.816291e+03
1.376927e+03,4.761866e+03
1.387533e+03,4.707738e+03
1.398140e+03,4.690479e+03
1.408747e+03,4.641713e+03
1.419353e+03,4.601744e+03
1.429960e+03,4.570397e+03
1.440566e+03,4.518946e+03
1.451173e+03,4.566960e+03
1.461779e+03,4.490169e+03
1.472386e+03,4.436038e+03
1.482993e+03,4.412914e+03
1.493599e+03,4.374042e+03
1.504206e+03,4.359203e+03
1.514812e+03,4.333926e+03
1.525419e+03,4.308028e+03
1.536025e+03,4.255557e+03
1.546632e+03,4.211733e+03
1.557239e+03,4.207549e+03
1.567845e+03,4.282377e+03
1.578452e+03,4.216600e+03
1.589058e+03,4.157141e+03
1.599665e+03,4.115997e+03
1.610271e+03,4.069763e+03
1.620878e+03,4.036142e+03
1.631484e+03,4.037573e+03
1.642091e+03,3.949686e+03
1.652698e+03,3.906677e+03
1.663304e+03,3.883218e+03
1.673911e+03,3.869813e+03
1.684517e+03,3.848180e+03
1.695124e+03,3.796352e+03
1.705730e+03,3.750855e+03
1.716337e+03,3.720074e+03
1.726944e+03,3.698352e+03
1.737550e+03,3.681340e+03
1.748157e+03,3.644236e+03
1.758763e+03,3.621226e+03
1.769370e+03,3.581875e+03
1.779976e+03,3.550523e+03
1.790583e+03,3.519724e+03
1.801190e+03,3.520130e+03
1.811796e+03,3.466889e+03
1.822403e+03,3.438338e+03
1.833009e+03,3.438447e+03
1.843616e+03,3.393123e+03
1.854222e+03,3.350762e+03
1.864829e+03,3.342531e+03
1.875436e+03,3.317698e+03
1.886042e+03,3.237941e+03
1.896649e+03,3.227835e+03
1.907255e+03,3.239901e+03
1.917862e+03,3.164234e+03
1.928468e+03,3.174410e+03
1.939075e+03,3.131309e+03
1.949682e+03,3.111601e+03
1.960288e+03,3.061876e+03
1.970895e+03,3.034613e+03
1.981501e+03,2.996678e+03
1.992108e+03,2.976947e+03
2.002714e+03,2.957583e+03
2.013321e+03,2.930498e+03
2.023927e+03,2.884279e+03
2.034534e+03,2.871547e+03
2.045141e+03,2.822044e+03
2.055747e+03,2.794554e+03
2.066354e+03,2.780509e+03
2.076960e+03,2.752258e+03
2.087567e+03,2.704071e+03
2.098173e+03,2.703815e+03
2.108780e+03,2.648393e+03
2.119387e+03,2.642749e+03
2.129993e+03,2.586727e+03
2.140600e+03,2.563649e+03
2.151206e+03,2.542757e+03
2.161813e+03,2.526732e+03
2.172419e+03,2.491502e+03
2.183026e+03,2.462019e+03
2.193633e+03,2.432059e+03
2.204239e+03,2.422214e+03
2.214846e+03,2.402667e+03
2.225452e+03,2.363491e+03
2.236059e+03,2.322531e+03
2.246666e+03,2.306802e+03
2.257272e+03,2.274777e+03
2.267879e+03,2.230129e+03
2.278485e+03,2.216859e+03
2.289092e+03,2.202114e+03
2.299698e+03,2.180881e+03
2.310305e+03,2.140981e+03
2.320911e+03,2.110859e+03
2.331518e+03,2.089894e+03
2.342125e+03,2.071353e+03
2.352731e+03,2.025452e+03
2.363338e+03,2.028116e+03
2.373944e+03,1.995829e+03
2.384551e+03,1.968083e+03
2.395157e+03,1.963684e+03
2.405764e+03,1.934016e+03
2.416370e+03,1.930529e+03
2.426977e+03,1.879430e+03
2.437584e+03,1.872466e+03
2.448190e+03,1.847740e+03
2.458797e+03,1.826867e+03
2.469403e+03,1.780643e+03
2.480010e+03,1.784702e+03
2.490616e+03,1.775931e+03
2.501223e+03,1.729536e+03
2.511830e+03,1.714207e+03
2.522436e+03,1.709855e+03
2.533043e+03,1.687618e+03
2.543649e+03,1.661241e+03
2.554256e+03,1.667948e+03
2.564863e+03,1.629466e+03
2.575469e+03,1.638009e+03
2.586075e+03,1.608985e+03
2.596682e+03,1.594285e+03
2.607289e+03,1.588972e+03
2.617895e+03,1.554655e+03
2.628502e+03,1.540062e+03
2.639108e+03,1.530575e+03
2.649715e+03,1.510417e+03
2.660322e+03,1.514784e+03
2.670928e+03,1.498666e+03
2.681535e+03,1.477995e+03
2.692141e+03,1.460776e+03
2.702748e+03,1.434047e+03
2.713354e+03,1.439310e+03
2.723961e+03,1.423798e+03
2.734568e+03,1.431964e+03
2.745174e+03,1.407555e+03
2.755781e+03,1.365129e+03
2.766387e+03,1.371021e+03
2.776994e+03,1.368285e+03
2.787600e+03,1.331479e+03
2.798207e+03,1.335431e+03
2.808813e+03,1.345294e+03
2.819420e+03,1.305792e+03
2.830027e+03,1.322219e+03
2.840633e+03,1.304757e+03
2.851240e+03,1.298274e+03
2.861846e+03,1.301383e+03
2.872453e+03,1.269096e+03
2.883059e+03,1.299234e+03
2.893666e+03,1.316190e+03
2.904273e+03,1.292610e+03
2.914879e+03,1.268765e+03
2.925486e+03,1.271808e+03
2.936092e+03,1.241964e+03
2.946699e+03,1.239987e+03
2.957305e+03,1.258399e+03
2.967912e+03,1.224172e+03
2.978519e+03,1.199932e+03
2.989125e+03,1.181902e+03
2.999732e+03,1.148130e+03
3.010338e+03,1.151114e+03
3.020945e+03,1.156318e+03
3.031552e+03,1.127071e+03
3.042158e+03,1.156289e+03
3.052764e+03,1.130667e+03
3.063371e+03,1.129072e+03
3.073978e+03,1.181114e+03
3.084584e+03,1.138510e+03
3.095191e+03,1.118918e+03
3.105797e+03,1.138327e+03
3.116404e+03,1.150316e+03
3.127010e+03,1.120877e+03
3.137617e+03,1.105158e+03
3.148224e+03,1.111642e+03
3.158830e+03,1.117719e+03
3.169437e+03,1.112771e+03
3.180043e+03,1.083479e+03
3.190650e+03,1.119875e+03
3.200292e+03,1.185634e+03

File: blue frag2.CSV
1.995979e+02,8.295905e+03
2.102045e+02,8.221246e+03
2.208110e+02,8.189424e+03
2.314176e+02,8.181600e+03
2.420242e+02,8.052692e+03
2.526307e+02,8.164171e+03
2.632373e+02,7.987698e+03
2.738439e+02,7.891377e+03
2.844504e+02,7.847523e+03
2.950570e+02,7.740794e+03
3.056636e+02,7.656331e+03
3.162701e+02,7.583557e+03
3.268767e+02,7.534719e+03
3.374833e+02,7.437508e+03
3.480898e+02,7.379938e+03
3.586964e+02,7.281156e+03
3.693030e+02,7.206526e+03
3.799095e+02,7.134585e+03
3.905161e+02,7.067994e+03
4.011227e+02,6.971705e+03
4.117292e+02,6.869187e+03
4.223358e+02,6.846032e+03
4.329424e+02,6.756996e+03
4.435490e+02,6.693048e+03
4.541555e+02,6.614017e+03
4.647621e+02,6.538468e+03
4.753687e+02,6.500262e+03
4.859752e+02,6.458697e+03
4.965818e+02,6.366746e+03
5.071884e+02,6.284650e+03
5.177949e+02,6.246114e+03
5.284015e+02,6.186243e+03
5.390081e+02,6.095601e+03
5.496146e+02,6.080837e+03
5.602212e+02,6.009634e+03
5.708278e+02,5.950820e+03
5.814343e+02,5.923521e+03
5.920409e+02,5.943908e+03
6.026475e+02,5.804446e+03
6.132540e+02,5.742487e+03
6.238606e+02,5.729265e+03
6.344672e+02,5.681721e+03
6.450737e+02,5.615015e+03
6.556803e+02,5.601734e+03
6.662869e+02,5.561976e+03
6.768934e+02,5.942586e+03
6.875000e+02,5.503052e+03
6.981066e+02,5.474165e+03
7.087131e+02,5.393509e+03
7.193197e+02,5.349011e+03
7.299263e+02,5.276374e+03
7.405328e+02,5.455644e+03
7.511394e+02,5.279224e+03
7.617460e+02,5.194513e+03
7.723525e+02,5.144880e+03
7.829591e+02,5.115589e+03
7.935657e+02,5.057341e+03
8.041722e+02,5.001009e+03
8.147788e+02,4.967371e+03
8.253854e+02,4.970324e+03
8.359919e+02,4.953138e+03
8.465985e+02,4.933257e+03
8.572051e+02,4.866427e+03
8.678116e+02,4.803914e+03
8.784182e+02,4.766505e+03
8.890248e+02,4.762976e+03
8.996313e+02,4.714903e+03
9.102379e+02,4.659469e+03
9.208445e+02,4.612262e+03
9.314510e+02,4.624162e+03
9.420576e+02,4.556764e+03
9.526642e+02,4.630655e+03
9.632708e+02,4.507249e+03
9.738773e+02,4.485833e+03
9.844839e+02,4.439138e+03
9.950905e+02,4.440931e+03
1.005697e+03,4.433552e+03
1.016304e+03,4.363771e+03
1.026910e+03,4.354877e+03
1.037517e+03,4.333870e+03
1.048123e+03,4.285774e+03
1.058730e+03,4.262154e+03
1.069336e+03,4.261434e+03
1.079943e+03,4.237535e+03
1.090550e+03,4.266795e+03
1.101156e+03,4.239220e+03
1.111763e+03,4.228475e+03
1.122369e+03,4.189829e+03
1.132976e+03,4.208865e+03
1.143582e+03,4.300907e+03
1.154189e+03,4.135865e+03
1.164796e+03,4.100560e+03
1.175402e+03,4.077378e+03
1.186009e+03,4.088188e+03
1.196615e+03,4.097527e+03
1.207222e+03,4.071531e+03
1.217828e+03,4.048390e+03
1.228435e+03,3.977319e+03
1.239042e+03,3.959859e+03
1.249648e+03,3.930958e+03
1.260255e+03,3.921521e+03
1.270861e+03,3.921819e+03
1.281468e+03,3.891650e+03
1.292074e+03,3.896434e+03
1.302681e+03,3.967642e+03
1.313287e+03,3.874693e+03
1.323894e+03,3.922801e+03
1.334501e+03,4.183458e+03
1.345107e+03,3.973845e+03
1.355714e+03,3.807708e+03
1.366320e+03,3.799190e+03
1.376927e+03,3.741406e+03
1.387533e+03,3.720413e+03
1.398140e+03,3.701710e+03
1.408747e+03,3.675199e+03
1.419353e+03,3.667444e+03
1.429960e+03,3.660393e+03
1.440566e+03,3.639492e+03
1.451173e+03,3.724273e+03
1.461779e+03,3.600023e+03
1.472386e+03,3.554148e+03
1.482993e+03,3.550123e+03
1.493599e+03,3.523951e+03
1.504206e+03,3.522165e+03
1.514812e+03,3.552110e+03
1.525419e+03,4.376627e+03
1.536025e+03,3.578554e+03
1.546632e+03,3.465671e+03
1.557239e+03,3.414815e+03
1.567845e+03,3.404241e+03
1.578452e+03,3.384812e+03
1.589058e+03,3.370981e+03
1.599665e+03,3.338712e+03
1.610271e+03,3.310116e+03
1.620878e+03,3.272157e+03
1.631484e+03,3.224103e+03
1.642091e+03,3.201565e+03
1.652698e+03,3.175249e+03
1.663304e+03,3.146986e+03
1.673911e+03,3.106811e+03
1.684517e+03,3.074121e+03
1.695124e+03,3.054577e+03
1.705730e+03,3.046476e+03
1.716337e+03,2.997769e+03
1.726944e+03,2.977427e+03
1.737550e+03,2.938775e+03
1.748157e+03,2.927538e+03
1.758763e+03,2.923082e+03
1.769370e+03,2.893833e+03
1.779976e+03,2.859775e+03
1.790583e+03,2.830131e+03
1.801190e+03,2.820875e+03
1.811796e+03,2.791752e+03
1.822403e+03,2.766302e+03
1.833009e+03,2.739624e+03
1.843616e+03,2.738962e+03
1.854222e+03,2.670459e+03
1.864829e+03,2.665371e+03
1.875436e+03,2.636104e+03
1.886042e+03,2.615302e+03
1.896649e+03,2.585849e+03
1.907255e+03,2.598671e+03
1.917862e+03,2.536797e+03
1.928468e+03,2.544594e+03
1.939075e+03,2.514605e+03
1.949682e+03,2.475509e+03
1.960288e+03,2.453187e+03
1.970895e+03,2.437188e+03
1.981501e+03,2.415409e+03
1.992108e+03,2.389231e+03
2.002714e+03,2.355518e+03
2.013321e+03,2.334582e+03
2.023927e+03,2.333828e+03
2.034534e+03,2.303305e+03
2.045141e+03,2.285585e+03
2.055747e+03,2.252998e+03
2.066354e+03,2.254036e+03
2.076960e+03,2.213060e+03
2.087567e+03,2.180338e+03
2.098173e+03,2.184961e+03
2.108780e+03,2.158355e+03
2.119387e+03,2.142621e+03
2.129993e+03,2.095682e+03
2.140600e+03,2.071385e+03
2.151206e+03,2.062512e+03
2.161813e+03,2.029008e+03
2.172419e+03,2.025128e+03
2.183026e+03,2.003497e+03
2.193633e+03,1.981961e+03
2.204239e+03,1.973159e+03
2.214846e+03,1.959926e+03
2.225452e+03,1.899510e+03
2.236059e+03,1.910599e+03
2.246666e+03,1.874300e+03
2.257272e+03,1.866599e+03
2.267879e+03,1.850487e+03
2.278485e+03,1.840285e+03
2.289092e+03,1.794462e+03
2.299698e+03,1.801006e+03
2.310305e+03,1.766002e+03
2.320911e+03,1.753779e+03
2.331518e+03,1.724109e+03
2.342125e+03,1.721909e+03
2.352731e+03,1.673708e+03
2.363338e+03,1.683193e+03
2.373944e+03,1.668584e+03
2.384551e+03,1.650530e+03
2.395157e+03,1.626609e+03
2.405764e+03,1.632233e+03
2.416370e+03,1.597608e+03
2.426977e+03,1.563437e+03
2.437584e+03,1.578918e+03
2.448190e+03,1.547313e+03
2.458797e+03,1.540685e+03
2.469403e+03,1.552088e+03
2.480010e+03,1.530567e+03
2.490616e+03,1.514040e+03
2.501223e+03,1.490879e+03
2.511830e+03,1.481102e+03
2.522436e+03,1.450994e+03
2.533043e+03,1.455286e+03
2.543649e+03,1.438667e+03
2.554256e+03,1.436100e+03
2.564863e+03,1.431790e+03
2.575469e+03,1.412676e+03
2.586075e+03,1.390087e+03
2.596682e+03,1.374507e+03
2.607289e+03,1.387616e+03
2.617895e+03,1.369280e+03
2.628502e+03,1.347238e+03
2.639108e+03,1.360890e+03
2.649715e+03,1.323806e+03
2.660322e+03,1.321093e+03
2.670928e+03,1.327505e+03
2.681535e+03,1.312178e+03
2.692141e+03,1.297201e+03
2.702748e+03,1.285847e+03
2.713354e+03,1.279584e+03
2.723961e+03,1.262563e+03
2.734568e+03,1.274828e+03
2.745174e+03,1.246948e+03
2.755781e+03,1.250291e+03
2.766387e+03,1.234182e+03
2.776994e+03,1.235247e+03
2.787600e+03,1.200056e+03
2.798207e+03,1.204844e+03
2.808813e+03,1.210586e+03
2.819420e+03,1.201675e+03
2.830027e+03,1.208625e+03
2.840633e+03,1.169156e+03
2.851240e+03,1.197600e+03
2.861846e+03,1.194168e+03
2.872453e+03,1.180645e+03
2.883059e+03,1.168078e+03
2.893666e+03,1.211012e+03
2.904273e+03,1.190543e+03
2.914879e+03,1.160994e+03
2.925486e+03,1.161963e+03
2.936092e+03,1.152647e+03
2.946699e+03,1.137995e+03
2.957305e+03,1.190281e+03
2.967912e+03,1.121570e+03
2.978519e+03,1.128021e+03
2.989125e+03,1.100019e+03
2.999732e+03,1.111696e+03
3.010338e+03,1.110761e+03
3.020945e+03,1.093863e+03
3.031552e+03,1.107569e+03
3.042158e+03,1.104759e+03
3.052764e+03,1.105372e+03
3.063371e+03,1.078058e+03
3.073978e+03,1.075439e+03
3.084584e+03,1.055230e+03
3.095191e+03,1.101995e+03
3.105797e+03,1.093741e+03
3.116404e+03,1.094258e+03
3.127010e+03,1.070200e+03
3.137617e+03,1.062180e+03
3.148224e+03,1.062025e+03
3.158830e+03,1.085248e+03
3.169437e+03,1.052080e+03
3.180043e+03,1.100748e+03
3.190650e+03,1.077708e+03
3.200292e+03,1.208489e+03

File: blue frag3.CSV
1.995979e+02,1.046964e+04
2.102045e+02,1.054658e+04
2.208110e+02,1.066058e+04
2.314176e+02,1.075159e+04
2.420242e+02,1.083454e+04
2.526307e+02,1.095972e+04
2.632373e+02,1.105562e+04
2.738439e+02,1.115154e+04
2.844504e+02,1.128402e+04
2.950570e+02,1.137532e+04
3.056636e+02,1.147431e+04
3.162701e+02,1.159601e+04
3.268767e+02,1.171076e+04
3.374833e+02,1.180784e+04
3.480898e+02,1.197636e+04
3.586964e+02,1.211193e+04
3.693030e+02,1.219936e+04
3.799095e+02,1.235504e+04
3.905161e+02,1.250335e+04
4.011227e+02,1.260206e+04
4.117292e+02,1.269522e+04
4.223358e+02,1.278883e+04
4.329424e+02,1.281531e+04
4.435490e+02,1.289537e+04
4.541555e+02,1.289746e+04
4.647621e+02,1.288579e+04
4.753687e+02,1.297669e+04
4.859752e+02,1.290003e+04
4.965818e+02,1.292067e+04
5.071884e+02,1.286212e+04
5.177949e+02,1.285208e+04
5.284015e+02,1.281203e+04
5.390081e+02,1.276965e+04
5.496146e+02,1.279911e+04
5.602212e+02,1.279995e+04
5.708278e+02,1.275265e+04
5.814343e+02,1.282162e+04
5.920409e+02,1.289678e+04
6.026475e+02,1.269868e+04
6.132540e+02,1.260406e+04
6.238606e+02,1.259779e+04
6.344672e+02,1.254713e+04
6.450737e+02,1.247951e+04
6.556803e+02,1.242319e+04
6.662869e+02,1.242977e+04
6.768934e+02,1.339169e+04
6.875000e+02,1.234834e+04
6.981066e+02,1.233573e+04
7.087131e+02,1.225924e+04
7.193197e+02,1.212676e+04
7.299263e+02,1.196620e+04
7.405328e+02,1.248068e+04
7.511394e+02,1.204022e+04
7.617460e+02,1.173313e+04
7.723525e+02,1.168533e+04
7.829591e+02,1.153760e+04
7.935657e+02,1.140563e+04
8.041722e+02,1.131325e+04
8.147788e+02,1.123839e+04
8.253854e+02,1.126740e+04
8.359919e+02,1.124986e+04
8.465985e+02,1.109168e+04
8.572051e+02,1.094347e+04
8.678116e+02,1.084150e+04
8.784182e+02,1.078083e+04
8.890248e+02,1.063751e+04
8.996313e+02,1.051000e+04
9.102379e+02,1.038441e+04
9.208445e+02,1.033975e+04
9.314510e+02,1.024737e+04
9.420576e+02,1.017895e+04
9.526642e+02,1.014577e+04
9.632708e+02,1.003307e+04
9.738773e+02,9.920425e+03
9.844839e+02,9.818872e+03
9.950905e+02,9.765111e+03
1.005697e+03,9.729009e+03
1.016304e+03,9.593030e+03
1.026910e+03,9.524577e+03
1.037517e+03,9.470801e+03
1.048123e+03,9.383811e+03
1.058730e+03,9.334123e+03
1.069336e+03,9.241488e+03
1.079943e+03,9.171096e+03
1.090550e+03,9.135611e+03
1.101156e+03,9.147703e+03
1.111763e+03,9.050374e+03
1.122369e+03,9.012334e+03
1.132976e+03,9.188427e+03
1.143582e+03,9.415316e+03
1.154189e+03,8.815770e+03
1.164796e+03,8.717377e+03
1.175402e+03,8.674154e+03
1.186009e+03,8.659954e+03
1.196615e+03,8.622862e+03
1.207222e+03,8.513814e+03
1.217828e+03,8.424104e+03
1.228435e+03,8.311574e+03
1.239042e+03,8.212889e+03
1.249648e+03,8.138792e+03
1.260255e+03,8.127912e+03
1.270861e+03,8.077455e+03
1.281468e+03,8.013821e+03
1.292074e+03,8.012463e+03
1.302681e+03,8.048948e+03
1.313287e+03,7.913205e+03
1.323894e+03,8.053911e+03
1.334501e+03,8.959732e+03
1.345107e+03,7.921093e+03
1.355714e+03,7.670127e+03
1.366320e+03,7.543436e+03
1.376927e+03,7.442852e+03
1.387533e+03,7.350357e+03
1.398140e+03,7.299622e+03
1.408747e+03,7.260880e+03
1.419353e+03,7.228273e+03
1.429960e+03,7.160750e+03
1.440566e+03,7.399475e+03
1.451173e+03,7.155100e+03
1.461779e+03,6.987915e+03
1.472386e+03,6.869167e+03
1.482993e+03,6.807664e+03
1.493599e+03,6.746661e+03
1.504206e+03,6.791511e+03
1.514812e+03,7.601464e+03
1.525419e+03,8.762705e+03
1.536025e+03,6.812885e+03
1.546632e+03,6.431866e+03
1.557239e+03,6.270042e+03
1.567845e+03,6.157635e+03
1.578452e+03,6.123654e+03
1.589058e+03,6.021077e+03
1.599665e+03,5.909526e+03
1.610271e+03,5.809083e+03
1.620878e+03,5.687532e+03
1.631484e+03,5.618423e+03
1.642091e+03,5.477369e+03
1.652698e+03,5.403838e+03
1.663304e+03,5.308186e+03
1.673911e+03,5.226664e+03
1.684517e+03,5.137468e+03
1.695124e+03,5.068602e+03
1.705730e+03,5.001917e+03
1.716337e+03,4.876107e+03
1.726944e+03,4.788103e+03
1.737550e+03,4.729482e+03
1.748157e+03,4.665954e+03
1.758763e+03,4.567811e+03
1.769370e+03,4.514648e+03
1.779976e+03,4.459651e+03
1.790583e+03,4.337775e+03
1.801190e+03,4.264563e+03
1.811796e+03,4.234973e+03
1.822403e+03,4.156730e+03
1.833009e+03,4.119790e+03
1.843616e+03,4.037522e+03
1.854222e+03,3.955515e+03
1.864829e+03,3.919154e+03
1.875436e+03,3.835951e+03
1.886042e+03,3.794383e+03
1.896649e+03,3.719490e+03
1.907255e+03,3.670709e+03
1.917862e+03,3.595729e+03
1.928468e+03,3.562339e+03
1.939075e+03,3.521560e+03
1.949682e+03,3.451899e+03
1.960288e+03,3.397675e+03
1.970895e+03,3.331531e+03
1.981501e+03,3.291747e+03
1.992108e+03,3.252231e+03
2.002714e+03,3.212699e+03
2.013321e+03,3.147532e+03
2.023927e+03,3.097643e+03
2.034534e+03,3.045528e+03
2.045141e+03,3.001521e+03
2.055747e+03,2.952290e+03
2.066354e+03,2.921610e+03
2.076960e+03,2.889906e+03
2.087567e+03,2.866291e+03
2.098173e+03,2.820357e+03
2.108780e+03,2.770840e+03
2.119387e+03,2.710480e+03
2.129993e+03,2.675133e+03
2.140600e+03,2.644508e+03
2.151206e+03,2.602348e+03
2.161813e+03,2.585958e+03
2.172419e+03,2.551172e+03
2.183026e+03,2.494906e+03
2.193633e+03,2.454463e+03
2.204239e+03,2.465476e+03
2.214846e+03,2.404006e+03
2.225452e+03,2.358139e+03
2.236059e+03,2.338152e+03
2.246666e+03,2.297183e+03
2.257272e+03,2.281105e+03
2.267879e+03,2.277156e+03
2.278485e+03,2.210635e+03
2.289092e+03,2.185339e+03
2.299698e+03,2.162089e+03
2.310305e+03,2.132236e+03
2.320911e+03,2.118334e+03
2.331518e+03,2.065634e+03
2.342125e+03,2.048610e+03
2.352731e+03,2.014693e+03
2.363338e+03,2.003133e+03
2.373944e+03,1.992069e+03
2.384551e+03,1.972350e+03
2.395157e+03,1.937489e+03
2.405764e+03,1.913194e+03
2.416370e+03,1.916582e+03
2.426977e+03,1.900821e+03
2.437584e+03,1.863373e+03
2.448190e+03,1.853824e+03
2.458797e+03,1.837807e+03
2.469403e+03,1.813590e+03
2.480010e+03,1.825628e+03
2.490616e+03,1.768510e+03
2.501223e+03,1.772443e+03
2.511830e+03,1.777071e+03
2.522436e+03,1.745930e+03
2.533043e+03,1.742376e+03
2.543649e+03,1.733820e+03
2.554256e+03,1.734874e+03
2.564863e+03,1.720111e+03
2.575469e+03,1.730319e+03
2.586075e+03,1.711331e+03
2.596682e+03,1.723220e+03
2.607289e+03,1.695628e+03
2.617895e+03,1.692478e+03
2.628502e+03,1.682051e+03
2.639108e+03,1.701628e+03
2.649715e+03,1.670578e+03
2.660322e+03,1.694620e+03
2.670928e+03,1.690390e+03
2.681535e+03,1.668684e+03
2.692141e+03,1.679368e+03
2.702748e+03,1.681433e+03
2.713354e+03,1.704205e+03
2.723961e+03,1.688348e+03
2.734568e+03,1.696078e+03
2.745174e+03,1.690052e+03
2.755781e+03,1.686507e+03
2.766387e+03,1.706400e+03
2.776994e+03,1.708146e+03
2.787600e+03,1.726115e+03
2.798207e+03,1.757574e+03
2.808813e+03,1.720511e+03
2.819420e+03,1.773092e+03
2.830027e+03,1.780504e+03
2.840633e+03,1.783366e+03
2.851240e+03,1.827346e+03
2.861846e+03,1.831336e+03
2.872453e+03,1.851940e+03
2.883059e+03,1.883763e+03
2.893666e+03,1.896428e+03
2.904273e+03,1.941832e+03
2.914879e+03,1.960959e+03
2.925486e+03,1.957799e+03
2.936092e+03,1.992332e+03
2.946699e+03,2.000506e+03
2.957305e+03,2.104332e+03
2.967912e+03,2.026620e+03
2.978519e+03,2.096726e+03
2.989125e+03,2.086656e+03
2.999732e+03,2.132946e+03
3.010338e+03,2.237593e+03
3.020945e+03,2.234338e+03
3.031552e+03,2.268072e+03
3.042158e+03,2.338572e+03
3.052764e+03,2.356868e+03
3.063371e+03,2.426396e+03
3.073978e+03,2.424554e+03
3.084584e+03,2.425022e+03
3.095191e+03,2.543218e+03
3.105797e+03,2.582147e+03
3.116404e+03,2.630346e+03
3.127010e+03,2.584821e+03
3.137617e+03,2.650975e+03
3.148224e+03,2.757033e+03
3.158830e+03,2.794112e+03
3.169437e+03,2.887301e+03
3.180043e+03,2.929912e+03
3.190650e+03,3.003942e+03
3.200292e+03,3.117535e+03