Folder: Taff_Bargoed_microplastics_data/RAMAN_data/23052023_r3 (part 2)

File: blue fibre2.CSV
9.931763e+01,0.000000e+00
1.108884e+02,0.000000e+00
1.224592e+02,0.000000e+00
1.340300e+02,0.000000e+00
1.456008e+02,0.000000e+00
1.571716e+02,0.000000e+00
1.687424e+02,0.000000e+00
1.803132e+02,0.000000e+00
1.918840e+02,0.000000e+00
2.034548e+02,6.836128e+03
2.150256e+02,6.892500e+03
2.265964e+02,6.989490e+03
2.381673e+02,7.085029e+03
2.497381e+02,7.216881e+03
2.613088e+02,7.273017e+03
2.728796e+02,7.434489e+03
2.844504e+02,7.524927e+03
2.960212e+02,7.494349e+03
3.075920e+02,7.532065e+03
3.191628e+02,7.564862e+03
3.307336e+02,7.657257e+03
3.423044e+02,7.675178e+03
3.538752e+02,7.750186e+03
3.654461e+02,7.765195e+03
3.770169e+02,7.851111e+03
3.885877e+02,7.896966e+03
4.001585e+02,7.936927e+03
4.117293e+02,7.947958e+03
4.233001e+02,8.006103e+03
4.348709e+02,7.993140e+03
4.464417e+02,8.038472e+03
4.580125e+02,8.041899e+03
4.695833e+02,8.082114e+03
4.811541e+02,8.086482e+03
4.927249e+02,8.122388e+03
5.042957e+02,8.107722e+03
5.158665e+02,8.163055e+03
5.274373e+02,8.166044e+03
5.390081e+02,8.237096e+03
5.505789e+02,8.294033e+03
5.621497e+02,8.306768e+03
5.737205e+02,8.154844e+03
5.852913e+02,8.189328e+03
5.968621e+02,8.244421e+03
6.084329e+02,8.345193e+03
6.200037e+02,8.161252e+03
6.315745e+02,8.159057e+03
6.431453e+02,8.118048e+03
6.547161e+02,8.081583e+03
6.662869e+02,8.065653e+03
6.778577e+02,8.038328e+03
6.894285e+02,7.985560e+03
7.009993e+02,7.930175e+03
7.125701e+02,7.934745e+03
7.241409e+02,7.893703e+03
7.357117e+02,7.837432e+03
7.472825e+02,7.840573e+03
7.588533e+02,7.818736e+03
7.704241e+02,7.757276e+03
7.819949e+02,7.778239e+03
7.935657e+02,7.731131e+03
8.051365e+02,7.649933e+03
8.167073e+02,7.595369e+03
8.282781e+02,7.531518e+03
8.398489e+02,7.552283e+03
8.514197e+02,7.486516e+03
8.629905e+02,7.442846e+03
8.745613e+02,7.383995e+03
8.861321e+02,7.368251e+03
8.977029e+02,7.296703e+03
9.092737e+02,7.199210e+03
9.208445e+02,7.168986e+03
9.324153e+02,7.127218e+03
9.439861e+02,7.072479e+03
9.555569e+02,7.004821e+03
9.671277e+02,6.967079e+03
9.786985e+02,6.914694e+03
9.902693e+02,6.839596e+03
1.001840e+03,6.789167e+03
1.013411e+03,6.757354e+03
1.024982e+03,6.713430e+03
1.036552e+03,6.636578e+03
1.048123e+03,6.591452e+03
1.059694e+03,6.591471e+03
1.071265e+03,6.568292e+03
1.082836e+03,6.557042e+03
1.094406e+03,6.438932e+03
1.105977e+03,6.389801e+03
1.117548e+03,6.342762e+03
1.129119e+03,6.283109e+03
1.140690e+03,6.238940e+03
1.152261e+03,6.198204e+03
1.163831e+03,6.138483e+03
1.175402e+03,6.079858e+03
1.186973e+03,6.036621e+03
1.198544e+03,6.030231e+03
1.210115e+03,5.936906e+03
1.221685e+03,5.924601e+03
1.233256e+03,5.852708e+03
1.244827e+03,5.805303e+03
1.256398e+03,5.761577e+03
1.267969e+03,5.687536e+03
1.279539e+03,5.649666e+03
1.291110e+03,5.612986e+03
1.302681e+03,5.565440e+03
1.314252e+03,5.545323e+03
1.325823e+03,5.509501e+03
1.337393e+03,5.481668e+03
1.348964e+03,5.426370e+03
1.360535e+03,5.399042e+03
1.372106e+03,5.343835e+03
1.383677e+03,5.281658e+03
1.395247e+03,5.246281e+03
1.406818e+03,5.207866e+03
1.418389e+03,5.182377e+03
1.429960e+03,5.148829e+03
1.441531e+03,5.112957e+03
1.453101e+03,5.101585e+03
1.464672e+03,5.059870e+03
1.476243e+03,5.022181e+03
1.487814e+03,4.978899e+03
1.499385e+03,4.934290e+03
1.510955e+03,4.923205e+03
1.522526e+03,4.859005e+03
1.534097e+03,4.812619e+03
1.545668e+03,4.782866e+03
1.557239e+03,4.775417e+03
1.568809e+03,4.927649e+03
1.580380e+03,4.816671e+03
1.591951e+03,4.653279e+03
1.603522e+03,4.644662e+03
1.615093e+03,4.573530e+03
1.626663e+03,4.582697e+03
1.638234e+03,4.516067e+03
1.649805e+03,4.445004e+03
1.661376e+03,4.435641e+03
1.672947e+03,4.420623e+03
1.684517e+03,4.370549e+03
1.696088e+03,4.318358e+03
1.707659e+03,4.251219e+03
1.719230e+03,4.249375e+03
1.730801e+03,4.213534e+03
1.742371e+03,4.174810e+03
1.753942e+03,4.119565e+03
1.765513e+03,4.083082e+03
1.777084e+03,4.058766e+03
1.788655e+03,4.016325e+03
1.800225e+03,4.012348e+03
1.811796e+03,3.968260e+03
1.823367e+03,3.903829e+03
1.834938e+03,3.875503e+03
1.846509e+03,3.850433e+03
1.858079e+03,3.815904e+03
1.869650e+03,3.798305e+03
1.881221e+03,3.759856e+03
1.892792e+03,3.724952e+03
1.904363e+03,3.670277e+03
1.915933e+03,3.605015e+03
1.927504e+03,3.609456e+03
1.939075e+03,3.567063e+03
1.950646e+03,3.534189e+03
1.962217e+03,3.488134e+03
1.973787e+03,3.473145e+03
1.985358e+03,3.432749e+03
1.996929e+03,3.399142e+03
2.008500e+03,3.361757e+03
2.020071e+03,3.331464e+03
2.031641e+03,3.265083e+03
2.043212e+03,3.225984e+03
2.054783e+03,3.221052e+03
2.066354e+03,3.161155e+03
2.077925e+03,3.156185e+03
2.089496e+03,3.103035e+03
2.101066e+03,3.071077e+03
2.112637e+03,3.035775e+03
2.124208e+03,3.006997e+03
2.135779e+03,2.979259e+03
2.147350e+03,2.910765e+03
2.158920e+03,2.883056e+03
2.170491e+03,2.871555e+03
2.182062e+03,2.824979e+03
2.193633e+03,2.790742e+03
2.205204e+03,2.780882e+03
2.216774e+03,2.747855e+03
2.228345e+03,2.681415e+03
2.239916e+03,2.668822e+03
2.251487e+03,2.627595e+03
2.263058e+03,2.583316e+03
2.274628e+03,2.565505e+03
2.286199e+03,2.528058e+03
2.297770e+03,2.500127e+03
2.309341e+03,2.472715e+03
2.320912e+03,2.439188e+03
2.332482e+03,2.386612e+03
2.344053e+03,2.384248e+03
2.355624e+03,2.343281e+03
2.367195e+03,2.312445e+03
2.378766e+03,2.295254e+03
2.390336e+03,2.262177e+03
2.401907e+03,2.231773e+03
2.413478e+03,2.214276e+03
2.425049e+03,2.189667e+03
2.436620e+03,2.162313e+03
2.448190e+03,2.131138e+03
2.459761e+03,2.110073e+03
2.471332e+03,2.073509e+03
2.482903e+03,2.045240e+03
2.494474e+03,2.040314e+03
2.506044e+03,2.004690e+03
2.517615e+03,2.010317e+03
2.529186e+03,1.940802e+03
2.540757e+03,1.938294e+03
2.552328e+03,1.937684e+03
2.563898e+03,1.915367e+03
2.575469e+03,1.892271e+03
2.587040e+03,1.849828e+03
2.598611e+03,1.829188e+03
2.610182e+03,1.809642e+03
2.621752e+03,1.781835e+03
2.633323e+03,1.771732e+03
2.644894e+03,1.731468e+03
2.656465e+03,1.737552e+03
2.668036e+03,1.729623e+03
2.679606e+03,1.682796e+03
2.691177e+03,1.681562e+03
2.702748e+03,1.656487e+03
2.714319e+03,1.649468e+03
2.725890e+03,1.618670e+03
2.737460e+03,1.608368e+03
2.749031e+03,1.588237e+03
2.760602e+03,1.585544e+03
2.772173e+03,1.553863e+03
2.783744e+03,1.530574e+03
2.795314e+03,1.525581e+03
2.806885e+03,1.519027e+03
2.818456e+03,1.506639e+03
2.830027e+03,1.508611e+03
2.841598e+03,1.470256e+03
2.853168e+03,1.482880e+03
2.864739e+03,1.447552e+03
2.876310e+03,1.462995e+03
2.887881e+03,1.431617e+03
2.899452e+03,1.432338e+03
2.911022e+03,1.427475e+03
2.922593e+03,1.385830e+03
2.934164e+03,1.402056e+03
2.945735e+03,1.392195e+03
2.957306e+03,1.374833e+03
2.968876e+03,1.345391e+03
2.980447e+03,1.349995e+03
2.992018e+03,1.340796e+03
3.003589e+03,1.294195e+03
3.015160e+03,1.298182e+03
3.026730e+03,1.251848e+03
3.038301e+03,1.268476e+03
3.049872e+03,1.298825e+03
3.061443e+03,1.265434e+03
3.073014e+03,1.274460e+03
3.084584e+03,1.262538e+03
3.096155e+03,1.231858e+03
3.107726e+03,1.228430e+03
3.119297e+03,1.243527e+03
3.130868e+03,1.267187e+03
3.142438e+03,1.213514e+03
3.154009e+03,1.211628e+03
3.165580e+03,1.232387e+03
3.177151e+03,1.218205e+03
3.188722e+03,1.191805e+03
3.200292e+03,1.299949e+03
3.211863e+03,0.000000e+00
3.223434e+03,0.000000e+00
3.235005e+03,0.000000e+00
3.246576e+03,0.000000e+00
3.258146e+03,0.000000e+00
3.269717e+03,0.000000e+00
3.281288e+03,0.000000e+00
3.292859e+03,0.000000e+00
3.304430e+03,0.000000e+00
3.316000e+03,0.000000e+00
3.327571e+03,0.000000e+00
3.339142e+03,0.000000e+00
3.350713e+03,0.000000e+00
3.362284e+03,0.000000e+00
3.373854e+03,0.000000e+00
3.385425e+03,0.000000e+00
3.396996e+03,0.000000e+00
3.408567e+03,0.000000e+00
3.420138e+03,0.000000e+00
3.431708e+03,0.000000e+00
3.443279e+03,0.000000e+00
3.454850e+03,0.000000e+00
3.466421e+03,0.000000e+00
3.477992e+03,0.000000e+00
3.489563e+03,0.000000e+00
3.500169e+03,0.000000e+00

File: blue fibre3.CSV
9.931763e+01,0.000000e+00
1.108884e+02,0.000000e+00
1.224592e+02,0.000000e+00
1.340300e+02,0.000000e+00
1.456008e+02,0.000000e+00
1.571716e+02,0.000000e+00
1.687424e+02,0.000000e+00
1.803132e+02,0.000000e+00
1.918840e+02,0.000000e+00
2.034548e+02,3.567156e+03
2.150256e+02,3.612350e+03
2.265964e+02,3.655884e+03
2.381673e+02,3.715635e+03
2.497381e+02,3.816173e+03
2.613088e+02,3.843892e+03
2.728796e+02,3.932047e+03
2.844504e+02,3.998548e+03
2.960212e+02,3.959342e+03
3.075920e+02,3.962056e+03
3.191628e+02,4.008820e+03
3.307336e+02,4.019434e+03
3.423044e+02,4.070708e+03
3.538752e+02,4.109372e+03
3.654461e+02,4.131517e+03
3.770169e+02,4.178046e+03
3.885877e+02,4.188388e+03
4.001585e+02,4.204194e+03
4.117293e+02,4.232654e+03
4.233001e+02,4.253078e+03
4.348709e+02,4.281577e+03
4.464417e+02,4.304178e+03
4.580125e+02,4.325488e+03
4.695833e+02,4.347047e+03
4.811541e+02,4.333317e+03
4.927249e+02,4.341218e+03
5.042957e+02,4.375098e+03
5.158665e+02,4.391411e+03
5.274373e+02,4.416240e+03
5.390081e+02,4.492824e+03
5.505789e+02,4.528521e+03
5.621497e+02,4.537018e+03
5.737205e+02,4.444375e+03
5.852913e+02,4.444093e+03
5.968621e+02,4.476748e+03
6.084329e+02,4.544275e+03
6.200037e+02,4.419798e+03
6.315745e+02,4.407643e+03
6.431453e+02,4.395809e+03
6.547161e+02,4.380171e+03
6.662869e+02,4.366667e+03
6.778577e+02,4.369001e+03
6.894285e+02,4.328301e+03
7.009993e+02,4.312176e+03
7.125701e+02,4.302862e+03
7.241409e+02,4.270750e+03
7.357117e+02,4.240886e+03
7.472825e+02,4.258848e+03
7.588533e+02,4.230038e+03
7.704241e+02,4.230380e+03
7.819949e+02,4.216143e+03
7.935657e+02,4.215619e+03
8.051365e+02,4.131457e+03
8.167073e+02,4.116825e+03
8.282781e+02,4.095626e+03
8.398489e+02,4.079955e+03
8.514197e+02,4.039319e+03
8.629905e+02,4.028870e+03
8.745613e+02,3.994111e+03
8.861321e+02,4.010420e+03
8.977029e+02,3.946550e+03
9.092737e+02,3.898002e+03
9.208445e+02,3.859809e+03
9.324153e+02,3.849740e+03
9.439861e+02,3.807309e+03
9.555569e+02,3.783365e+03
9.671277e+02,3.753806e+03
9.786985e+02,3.723616e+03
9.902693e+02,3.692992e+03
1.001840e+03,3.652955e+03
1.013411e+03,3.642557e+03
1.024982e+03,3.612519e+03
1.036552e+03,3.591877e+03
1.048123e+03,3.541613e+03
1.059694e+03,3.540326e+03
1.071265e+03,3.541594e+03
1.082836e+03,3.538501e+03
1.094406e+03,3.470170e+03
1.105977e+03,3.432485e+03
1.117548e+03,3.424481e+03
1.129119e+03,3.373838e+03
1.140690e+03,3.335723e+03
1.152261e+03,3.313205e+03
1.163831e+03,3.282517e+03
1.175402e+03,3.253675e+03
1.186973e+03,3.243766e+03
1.198544e+03,3.216699e+03
1.210115e+03,3.170446e+03
1.221685e+03,3.165800e+03
1.233256e+03,3.145924e+03
1.244827e+03,3.125280e+03
1.256398e+03,3.074501e+03
1.267969e+03,3.024785e+03
1.279539e+03,3.036444e+03
1.291110e+03,3.021841e+03
1.302681e+03,2.975455e+03
1.314252e+03,2.984741e+03
1.325823e+03,2.935963e+03
1.337393e+03,2.937392e+03
1.348964e+03,2.906712e+03
1.360535e+03,2.880651e+03
1.372106e+03,2.873727e+03
1.383677e+03,2.843037e+03
1.395247e+03,2.809059e+03
1.406818e+03,2.801816e+03
1.418389e+03,2.764092e+03
1.429960e+03,2.746469e+03
1.441531e+03,2.736631e+03
1.453101e+03,2.744448e+03
1.464672e+03,2.688685e+03
1.476243e+03,2.674366e+03
1.487814e+03,2.659560e+03
1.499385e+03,2.643751e+03
1.510955e+03,2.631698e+03
1.522526e+03,2.606414e+03
1.534097e+03,2.574678e+03
1.545668e+03,2.558565e+03
1.557239e+03,2.553994e+03
1.568809e+03,2.691765e+03
1.580380e+03,2.615659e+03
1.591951e+03,2.505092e+03
1.603522e+03,2.478758e+03
1.615093e+03,2.465085e+03
1.626663e+03,2.451454e+03
1.638234e+03,2.415785e+03
1.649805e+03,2.385768e+03
1.661376e+03,2.378480e+03
1.672947e+03,2.360995e+03
1.684517e+03,2.337903e+03
1.696088e+03,2.311594e+03
1.707659e+03,2.290690e+03
1.719230e+03,2.256481e+03
1.730801e+03,2.251865e+03
1.742371e+03,2.244677e+03
1.753942e+03,2.223571e+03
1.765513e+03,2.191827e+03
1.777084e+03,2.165885e+03
1.788655e+03,2.146244e+03
1.800225e+03,2.125189e+03
1.811796e+03,2.116474e+03
1.823367e+03,2.104736e+03
1.834938e+03,2.081784e+03
1.846509e+03,2.058867e+03
1.858079e+03,2.045330e+03
1.869650e+03,2.021902e+03
1.881221e+03,1.987225e+03
1.892792e+03,1.999320e+03
1.904363e+03,1.957631e+03
1.915933e+03,1.928166e+03
1.927504e+03,1.933662e+03
1.939075e+03,1.894332e+03
1.950646e+03,1.887543e+03
1.962217e+03,1.860111e+03
1.973787e+03,1.847464e+03
1.985358e+03,1.841435e+03
1.996929e+03,1.823786e+03
2.008500e+03,1.789210e+03
2.020071e+03,1.768208e+03
2.031641e+03,1.747428e+03
2.043212e+03,1.707137e+03
2.054783e+03,1.703524e+03
2.066354e+03,1.691197e+03
2.077925e+03,1.685684e+03
2.089496e+03,1.654627e+03
2.101066e+03,1.628455e+03
2.112637e+03,1.614689e+03
2.124208e+03,1.600705e+03
2.135779e+03,1.588699e+03
2.147350e+03,1.527257e+03
2.158920e+03,1.526713e+03
2.170491e+03,1.523792e+03
2.182062e+03,1.495964e+03
2.193633e+03,1.487974e+03
2.205204e+03,1.482752e+03
2.216774e+03,1.448059e+03
2.228345e+03,1.423473e+03
2.239916e+03,1.411260e+03
2.251487e+03,1.389652e+03
2.263058e+03,1.381835e+03
2.274628e+03,1.363197e+03
2.286199e+03,1.336853e+03
2.297770e+03,1.329681e+03
2.309341e+03,1.319330e+03
2.320912e+03,1.298909e+03
2.332482e+03,1.281100e+03
2.344053e+03,1.275129e+03
2.355624e+03,1.254188e+03
2.367195e+03,1.222407e+03
2.378766e+03,1.212267e+03
2.390336e+03,1.207907e+03
2.401907e+03,1.177382e+03
2.413478e+03,1.176783e+03
2.425049e+03,1.167930e+03
2.436620e+03,1.145671e+03
2.448190e+03,1.140112e+03
2.459761e+03,1.112677e+03
2.471332e+03,1.117722e+03
2.482903e+03,1.104001e+03
2.494474e+03,1.088062e+03
2.506044e+03,1.070716e+03
2.517615e+03,1.052015e+03
2.529186e+03,1.044463e+03
2.540757e+03,1.027345e+03
2.552328e+03,1.022876e+03
2.563898e+03,1.018360e+03
2.575469e+03,9.976445e+02
2.587040e+03,9.728381e+02
2.598611e+03,9.731278e+02
2.610182e+03,9.691334e+02
2.621752e+03,9.723991e+02
2.633323e+03,9.368766e+02
2.644894e+03,9.212659e+02
2.656465e+03,9.227560e+02
2.668036e+03,9.068904e+02
2.679606e+03,9.026229e+02
2.691177e+03,8.792655e+02
2.702748e+03,8.894122e+02
2.714319e+03,8.965258e+02
2.725890e+03,8.763990e+02
2.737460e+03,8.457393e+02
2.749031e+03,8.517758e+02
2.760602e+03,8.457231e+02
2.772173e+03,8.408121e+02
2.783744e+03,8.238386e+02
2.795314e+03,8.228004e+02
2.806885e+03,8.235341e+02
2.818456e+03,8.068528e+02
2.830027e+03,8.027486e+02
2.841598e+03,7.879532e+02
2.853168e+03,7.770178e+02
2.864739e+03,7.890071e+02
2.876310e+03,7.631675e+02
2.887881e+03,8.071551e+02
2.899452e+03,7.863281e+02
2.911022e+03,7.814517e+02
2.922593e+03,7.696403e+02
2.934164e+03,7.573617e+02
2.945735e+03,7.534486e+02
2.957306e+03,7.788283e+02
2.968876e+03,7.371347e+02
2.980447e+03,7.288953e+02
2.992018e+03,6.815906e+02
3.003589e+03,7.060524e+02
3.015160e+03,7.037400e+02
3.026730e+03,7.110501e+02
3.038301e+03,7.178383e+02
3.049872e+03,6.937316e+02
3.061443e+03,6.721002e+02
3.073014e+03,7.075703e+02
3.084584e+03,6.965872e+02
3.096155e+03,6.853519e+02
3.107726e+03,6.703961e+02
3.119297e+03,6.891013e+02
3.130868e+03,7.021509e+02
3.142438e+03,7.086449e+02
3.154009e+03,6.671325e+02
3.165580e+03,6.687515e+02
3.177151e+03,6.887186e+02
3.188722e+03,6.701624e+02
3.200292e+03,7.133625e+02
3.211863e+03,0.000000e+00
3.223434e+03,0.000000e+00
3.235005e+03,0.000000e+00
3.246576e+03,0.000000e+00
3.258146e+03,0.000000e+00
3.269717e+03,0.000000e+00
3.281288e+03,0.000000e+00
3.292859e+03,0.000000e+00
3.304430e+03,0.000000e+00
3.316000e+03,0.000000e+00
3.327571e+03,0.000000e+00
3.339142e+03,0.000000e+00
3.350713e+03,0.000000e+00
3.362284e+03,0.000000e+00
3.373854e+03,0.000000e+00
3.385425e+03,0.000000e+00
3.396996e+03,0.000000e+00
3.408567e+03,0.000000e+00
3.420138e+03,0.000000e+00
3.431708e+03,0.000000e+00
3.443279e+03,0.000000e+00
3.454850e+03,0.000000e+00
3.466421e+03,0.000000e+00
3.477992e+03,0.000000e+00
3.489563e+03,0.000000e+00
3.500169e+03,0.000000e+00

File: blue fibre4.CSV
9.931763e+01,0.000000e+00
1.108884e+02,0.000000e+00
1.224592e+02,0.000000e+00
1.340300e+02,0.000000e+00
1.456008e+02,0.000000e+00
1.571716e+02,0.000000e+00
1.687424e+02,0.000000e+00
1.803132e+02,0.000000e+00
1.918840e+02,0.000000e+00
2.034548e+02,6.556881e+03
2.150256e+02,6.630104e+03
2.265964e+02,6.725724e+03
2.381673e+02,6.849392e+03
2.497381e+02,7.000472e+03
2.613088e+02,7.065716e+03
2.728796e+02,7.212549e+03
2.844504e+02,7.272765e+03
2.960212e+02,7.268041e+03
3.075920e+02,7.325636e+03
3.191628e+02,7.348174e+03
3.307336e+02,7.430448e+03
3.423044e+02,7.491526e+03
3.538752e+02,7.538914e+03
3.654461e+02,7.579818e+03
3.770169e+02,7.650890e+03
3.885877e+02,7.701143e+03
4.001585e+02,7.721064e+03
4.117293e+02,7.757085e+03
4.233001e+02,7.804296e+03
4.348709e+02,7.833978e+03
4.464417e+02,7.862873e+03
4.580125e+02,7.884255e+03
4.695833e+02,7.929208e+03
4.811541e+02,7.943043e+03
4.927249e+02,7.966169e+03
5.042957e+02,7.989010e+03
5.158665e+02,8.053976e+03
5.274373e+02,8.076803e+03
5.390081e+02,8.183048e+03
5.505789e+02,8.266370e+03
5.621497e+02,8.234923e+03
5.737205e+02,8.070597e+03
5.852913e+02,8.081055e+03
5.968621e+02,8.120306e+03
6.084329e+02,8.246866e+03
6.200037e+02,8.036124e+03
6.315745e+02,8.012470e+03
6.431453e+02,7.996381e+03
6.547161e+02,7.951525e+03
6.662869e+02,7.932469e+03
6.778577e+02,7.872429e+03
6.894285e+02,7.868274e+03
7.009993e+02,7.801197e+03
7.125701e+02,7.796001e+03
7.241409e+02,7.769799e+03
7.357117e+02,7.709544e+03
7.472825e+02,7.708478e+03
7.588533e+02,7.693710e+03
7.704241e+02,7.648136e+03
7.819949e+02,7.648097e+03
7.935657e+02,7.605250e+03
8.051365e+02,7.512871e+03
8.167073e+02,7.421157e+03
8.282781e+02,7.406758e+03
8.398489e+02,7.410227e+03
8.514197e+02,7.320076e+03
8.629905e+02,7.257733e+03
8.745613e+02,7.243702e+03
8.861321e+02,7.202536e+03
8.977029e+02,7.143040e+03
9.092737e+02,7.060429e+03
9.208445e+02,7.006672e+03
9.324153e+02,6.965937e+03
9.439861e+02,6.912024e+03
9.555569e+02,6.817571e+03
9.671277e+02,6.760834e+03
9.786985e+02,6.735202e+03
9.902693e+02,6.652394e+03
1.001840e+03,6.570757e+03
1.013411e+03,6.536445e+03
1.024982e+03,6.505292e+03
1.036552e+03,6.436220e+03
1.048123e+03,6.423989e+03
1.059694e+03,6.354593e+03
1.071265e+03,6.343623e+03
1.082836e+03,6.319202e+03
1.094406e+03,6.182726e+03
1.105977e+03,6.116491e+03
1.117548e+03,6.091071e+03
1.129119e+03,6.000873e+03
1.140690e+03,5.950932e+03
1.152261e+03,5.926706e+03
1.163831e+03,5.852416e+03
1.175402e+03,5.796022e+03
1.186973e+03,5.762898e+03
1.198544e+03,5.718758e+03
1.210115e+03,5.646672e+03
1.221685e+03,5.609586e+03
1.233256e+03,5.558426e+03
1.244827e+03,5.491904e+03
1.256398e+03,5.433851e+03
1.267969e+03,5.339703e+03
1.279539e+03,5.317333e+03
1.291110e+03,5.270520e+03
1.302681e+03,5.226593e+03
1.314252e+03,5.193806e+03
1.325823e+03,5.152503e+03
1.337393e+03,5.107771e+03
1.348964e+03,5.054917e+03
1.360535e+03,5.002190e+03
1.372106e+03,4.976465e+03
1.383677e+03,4.908805e+03
1.395247e+03,4.863646e+03
1.406818e+03,4.815581e+03
1.418389e+03,4.789058e+03
1.429960e+03,4.759119e+03
1.441531e+03,4.725477e+03
1.453101e+03,4.732329e+03
1.464672e+03,4.654404e+03
1.476243e+03,4.610583e+03
1.487814e+03,4.582333e+03
1.499385e+03,4.522394e+03
1.510955e+03,4.507157e+03
1.522526e+03,4.470289e+03
1.534097e+03,4.422959e+03
1.545668e+03,4.378860e+03
1.557239e+03,4.396667e+03
1.568809e+03,4.608474e+03
1.580380e+03,4.475154e+03
1.591951e+03,4.280629e+03
1.603522e+03,4.235053e+03
1.615093e+03,4.221614e+03
1.626663e+03,4.195783e+03
1.638234e+03,4.118939e+03
1.649805e+03,4.056586e+03
1.661376e+03,4.039260e+03
1.672947e+03,4.008866e+03
1.684517e+03,3.988822e+03
1.696088e+03,3.927004e+03
1.707659e+03,3.919220e+03
1.719230e+03,3.863177e+03
1.730801e+03,3.833853e+03
1.742371e+03,3.795629e+03
1.753942e+03,3.752354e+03
1.765513e+03,3.744299e+03
1.777084e+03,3.672907e+03
1.788655e+03,3.677270e+03
1.800225e+03,3.628085e+03
1.811796e+03,3.627746e+03
1.823367e+03,3.558565e+03
1.834938e+03,3.543551e+03
1.846509e+03,3.511614e+03
1.858079e+03,3.457302e+03
1.869650e+03,3.446254e+03
1.881221e+03,3.405711e+03
1.892792e+03,3.378312e+03
1.904363e+03,3.360263e+03
1.915933e+03,3.289042e+03
1.927504e+03,3.262098e+03
1.939075e+03,3.235716e+03
1.950646e+03,3.188772e+03
1.962217e+03,3.150222e+03
1.973787e+03,3.138082e+03
1.985358e+03,3.105196e+03
1.996929e+03,3.087587e+03
2.008500e+03,3.026490e+03
2.020071e+03,2.998250e+03
2.031641e+03,2.956267e+03
2.043212e+03,2.926181e+03
2.054783e+03,2.892698e+03
2.066354e+03,2.871282e+03
2.077925e+03,2.839758e+03
2.089496e+03,2.811413e+03
2.101066e+03,2.765932e+03
2.112637e+03,2.757872e+03
2.124208e+03,2.707802e+03
2.135779e+03,2.668026e+03
2.147350e+03,2.627661e+03
2.158920e+03,2.593127e+03
2.170491e+03,2.582818e+03
2.182062e+03,2.554285e+03
2.193633e+03,2.529753e+03
2.205204e+03,2.481805e+03
2.216774e+03,2.435161e+03
2.228345e+03,2.420185e+03
2.239916e+03,2.362995e+03
2.251487e+03,2.367483e+03
2.263058e+03,2.318821e+03
2.274628e+03,2.284139e+03
2.286199e+03,2.256354e+03
2.297770e+03,2.238700e+03
2.309341e+03,2.195277e+03
2.320912e+03,2.179050e+03
2.332482e+03,2.137123e+03
2.344053e+03,2.141619e+03
2.355624e+03,2.078162e+03
2.367195e+03,2.076961e+03
2.378766e+03,2.035772e+03
2.390336e+03,2.001209e+03
2.401907e+03,1.983601e+03
2.413478e+03,1.963521e+03
2.425049e+03,1.942054e+03
2.436620e+03,1.892967e+03
2.448190e+03,1.880125e+03
2.459761e+03,1.852941e+03
2.471332e+03,1.831997e+03
2.482903e+03,1.806700e+03
2.494474e+03,1.778240e+03
2.506044e+03,1.766293e+03
2.517615e+03,1.746948e+03
2.529186e+03,1.710989e+03
2.540757e+03,1.699181e+03
2.552328e+03,1.698089e+03
2.563898e+03,1.680935e+03
2.575469e+03,1.672621e+03
2.587040e+03,1.621668e+03
2.598611e+03,1.599851e+03
2.610182e+03,1.589444e+03
2.621752e+03,1.560771e+03
2.633323e+03,1.546117e+03
2.644894e+03,1.536249e+03
2.656465e+03,1.511062e+03
2.668036e+03,1.492257e+03
2.679606e+03,1.465271e+03
2.691177e+03,1.470530e+03
2.702748e+03,1.446671e+03
2.714319e+03,1.412973e+03
2.725890e+03,1.400438e+03
2.737460e+03,1.407318e+03
2.749031e+03,1.385192e+03
2.760602e+03,1.378493e+03
2.772173e+03,1.368546e+03
2.783744e+03,1.319179e+03
2.795314e+03,1.344157e+03
2.806885e+03,1.320754e+03
2.818456e+03,1.321768e+03
2.830027e+03,1.289804e+03
2.841598e+03,1.255185e+03
2.853168e+03,1.267201e+03
2.864739e+03,1.248375e+03
2.876310e+03,1.262956e+03
2.887881e+03,1.264057e+03
2.899452e+03,1.238051e+03
2.911022e+03,1.222996e+03
2.922593e+03,1.221381e+03
2.934164e+03,1.202965e+03
2.945735e+03,1.170929e+03
2.957306e+03,1.225714e+03
2.968876e+03,1.158526e+03
2.980447e+03,1.144512e+03
2.992018e+03,1.139115e+03
3.003589e+03,1.150185e+03
3.015160e+03,1.121426e+03
3.026730e+03,1.129986e+03
3.038301e+03,1.121240e+03
3.049872e+03,1.135428e+03
3.061443e+03,1.102609e+03
3.073014e+03,1.126253e+03
3.084584e+03,1.082820e+03
3.096155e+03,1.111216e+03
3.107726e+03,1.052419e+03
3.119297e+03,1.092679e+03
3.130868e+03,1.120024e+03
3.142438e+03,1.085770e+03
3.154009e+03,1.078469e+03
3.165580e+03,1.132033e+03
3.177151e+03,1.098831e+03
3.188722e+03,1.102981e+03
3.200292e+03,1.105075e+03
3.211863e+03,0.000000e+00
3.223434e+03,0.000000e+00
3.235005e+03,0.000000e+00
3.246576e+03,0.000000e+00
3.258146e+03,0.000000e+00
3.269717e+03,0.000000e+00
3.281288e+03,0.000000e+00
3.292859e+03,0.000000e+00
3.304430e+03,0.000000e+00
3.316000e+03,0.000000e+00
3.327571e+03,0.000000e+00
3.339142e+03,0.000000e+00
3.350713e+03,0.000000e+00
3.362284e+03,0.000000e+00
3.373854e+03,0.000000e+00
3.385425e+03,0.000000e+00
3.396996e+03,0.000000e+00
3.408567e+03,0.000000e+00
3.420138e+03,0.000000e+00
3.431708e+03,0.000000e+00
3.443279e+03,0.000000e+00
3.454850e+03,0.000000e+00
3.466421e+03,0.000000e+00
3.477992e+03,0.000000e+00
3.489563e+03,0.000000e+00
3.500169e+03,0.000000e+00