Folder: Taff_Bargoed_microplastics_data/RAMAN_data/23052023_r3 (part 4)

File: blue fibre8.CSV
9.931763e+01,0.000000e+00
1.108884e+02,0.000000e+00
1.224592e+02,0.000000e+00
1.340300e+02,0.000000e+00
1.456008e+02,0.000000e+00
1.571716e+02,0.000000e+00
1.687424e+02,0.000000e+00
1.803132e+02,0.000000e+00
1.918840e+02,0.000000e+00
2.034548e+02,3.557523e+03
2.150256e+02,3.599896e+03
2.265964e+02,3.647510e+03
2.381673e+02,3.678554e+03
2.497381e+02,3.756729e+03
2.613088e+02,3.784349e+03
2.728796e+02,3.840310e+03
2.844504e+02,3.882364e+03
2.960212e+02,3.895094e+03
3.075920e+02,3.899755e+03
3.191628e+02,3.934386e+03
3.307336e+02,3.970348e+03
3.423044e+02,4.003394e+03
3.538752e+02,4.007279e+03
3.654461e+02,4.031814e+03
3.770169e+02,4.085525e+03
3.885877e+02,4.077396e+03
4.001585e+02,4.108761e+03
4.117293e+02,4.119186e+03
4.233001e+02,4.124369e+03
4.348709e+02,4.162006e+03
4.464417e+02,4.133046e+03
4.580125e+02,4.160540e+03
4.695833e+02,4.169477e+03
4.811541e+02,4.180866e+03
4.927249e+02,4.175483e+03
5.042957e+02,4.177565e+03
5.158665e+02,4.196826e+03
5.274373e+02,4.186631e+03
5.390081e+02,4.244030e+03
5.505789e+02,4.217209e+03
5.621497e+02,4.228519e+03
5.737205e+02,4.164583e+03
5.852913e+02,4.170880e+03
5.968621e+02,4.202434e+03
6.084329e+02,4.221387e+03
6.200037e+02,4.148391e+03
6.315745e+02,4.142553e+03
6.431453e+02,4.136353e+03
6.547161e+02,4.124779e+03
6.662869e+02,4.114807e+03
6.778577e+02,4.081068e+03
6.894285e+02,4.071923e+03
7.009993e+02,4.074381e+03
7.125701e+02,4.039924e+03
7.241409e+02,4.003854e+03
7.357117e+02,3.997654e+03
7.472825e+02,3.988971e+03
7.588533e+02,3.957402e+03
7.704241e+02,3.936894e+03
7.819949e+02,3.917899e+03
7.935657e+02,3.907989e+03
8.051365e+02,3.858146e+03
8.167073e+02,3.836992e+03
8.282781e+02,3.838712e+03
8.398489e+02,3.780898e+03
8.514197e+02,3.782820e+03
8.629905e+02,3.755454e+03
8.745613e+02,3.732788e+03
8.861321e+02,3.696692e+03
8.977029e+02,3.676937e+03
9.092737e+02,3.616302e+03
9.208445e+02,3.589830e+03
9.324153e+02,3.581011e+03
9.439861e+02,3.537360e+03
9.555569e+02,3.502174e+03
9.671277e+02,3.484910e+03
9.786985e+02,3.458023e+03
9.902693e+02,3.413516e+03
1.001840e+03,3.405019e+03
1.013411e+03,3.377884e+03
1.024982e+03,3.351685e+03
1.036552e+03,3.309911e+03
1.048123e+03,3.281872e+03
1.059694e+03,3.249491e+03
1.071265e+03,3.253304e+03
1.082836e+03,3.237866e+03
1.094406e+03,3.196493e+03
1.105977e+03,3.156508e+03
1.117548e+03,3.156367e+03
1.129119e+03,3.094901e+03
1.140690e+03,3.062945e+03
1.152261e+03,3.047093e+03
1.163831e+03,3.012581e+03
1.175402e+03,2.979901e+03
1.186973e+03,2.937604e+03
1.198544e+03,2.917638e+03
1.210115e+03,2.901196e+03
1.221685e+03,2.890274e+03
1.233256e+03,2.863737e+03
1.244827e+03,2.823479e+03
1.256398e+03,2.802532e+03
1.267969e+03,2.770311e+03
1.279539e+03,2.755266e+03
1.291110e+03,2.736142e+03
1.302681e+03,2.706810e+03
1.314252e+03,2.697076e+03
1.325823e+03,2.670121e+03
1.337393e+03,2.666330e+03
1.348964e+03,2.616678e+03
1.360535e+03,2.603414e+03
1.372106e+03,2.572718e+03
1.383677e+03,2.564402e+03
1.395247e+03,2.524902e+03
1.406818e+03,2.521496e+03
1.418389e+03,2.500398e+03
1.429960e+03,2.473466e+03
1.441531e+03,2.451746e+03
1.453101e+03,2.439366e+03
1.464672e+03,2.423053e+03
1.476243e+03,2.399271e+03
1.487814e+03,2.384297e+03
1.499385e+03,2.355339e+03
1.510955e+03,2.335275e+03
1.522526e+03,2.322098e+03
1.534097e+03,2.316927e+03
1.545668e+03,2.268977e+03
1.557239e+03,2.279805e+03
1.568809e+03,2.307278e+03
1.580380e+03,2.259177e+03
1.591951e+03,2.208910e+03
1.603522e+03,2.196945e+03
1.615093e+03,2.174636e+03
1.626663e+03,2.160241e+03
1.638234e+03,2.137884e+03
1.649805e+03,2.121767e+03
1.661376e+03,2.106357e+03
1.672947e+03,2.094321e+03
1.684517e+03,2.077629e+03
1.696088e+03,2.059504e+03
1.707659e+03,2.039422e+03
1.719230e+03,2.007533e+03
1.730801e+03,1.999340e+03
1.742371e+03,1.999761e+03
1.753942e+03,1.964972e+03
1.765513e+03,1.941262e+03
1.777084e+03,1.952831e+03
1.788655e+03,1.935357e+03
1.800225e+03,1.904428e+03
1.811796e+03,1.866859e+03
1.823367e+03,1.862724e+03
1.834938e+03,1.847953e+03
1.846509e+03,1.834972e+03
1.858079e+03,1.830103e+03
1.869650e+03,1.782377e+03
1.881221e+03,1.773545e+03
1.892792e+03,1.748412e+03
1.904363e+03,1.750497e+03
1.915933e+03,1.719944e+03
1.927504e+03,1.716341e+03
1.939075e+03,1.713345e+03
1.950646e+03,1.674445e+03
1.962217e+03,1.667154e+03
1.973787e+03,1.643524e+03
1.985358e+03,1.608808e+03
1.996929e+03,1.589863e+03
2.008500e+03,1.590360e+03
2.020071e+03,1.575615e+03
2.031641e+03,1.544787e+03
2.043212e+03,1.551247e+03
2.054783e+03,1.505498e+03
2.066354e+03,1.498502e+03
2.077925e+03,1.476911e+03
2.089496e+03,1.468332e+03
2.101066e+03,1.450728e+03
2.112637e+03,1.432730e+03
2.124208e+03,1.419565e+03
2.135779e+03,1.386518e+03
2.147350e+03,1.375674e+03
2.158920e+03,1.358427e+03
2.170491e+03,1.354753e+03
2.182062e+03,1.340864e+03
2.193633e+03,1.308072e+03
2.205204e+03,1.305662e+03
2.216774e+03,1.285066e+03
2.228345e+03,1.259438e+03
2.239916e+03,1.230530e+03
2.251487e+03,1.216466e+03
2.263058e+03,1.191789e+03
2.274628e+03,1.198341e+03
2.286199e+03,1.159134e+03
2.297770e+03,1.170965e+03
2.309341e+03,1.155563e+03
2.320912e+03,1.130302e+03
2.332482e+03,1.110443e+03
2.344053e+03,1.105834e+03
2.355624e+03,1.088179e+03
2.367195e+03,1.073396e+03
2.378766e+03,1.061905e+03
2.390336e+03,1.040231e+03
2.401907e+03,1.027733e+03
2.413478e+03,1.027626e+03
2.425049e+03,9.989505e+02
2.436620e+03,9.783068e+02
2.448190e+03,9.731525e+02
2.459761e+03,9.619310e+02
2.471332e+03,9.512582e+02
2.482903e+03,9.339785e+02
2.494474e+03,9.240994e+02
2.506044e+03,9.189202e+02
2.517615e+03,9.132475e+02
2.529186e+03,8.913322e+02
2.540757e+03,8.920342e+02
2.552328e+03,8.804276e+02
2.563898e+03,8.510700e+02
2.575469e+03,8.698122e+02
2.587040e+03,8.487494e+02
2.598611e+03,8.376465e+02
2.610182e+03,8.305842e+02
2.621752e+03,8.089856e+02
2.633323e+03,7.945909e+02
2.644894e+03,7.870800e+02
2.656465e+03,7.831537e+02
2.668036e+03,7.709042e+02
2.679606e+03,7.525934e+02
2.691177e+03,7.363500e+02
2.702748e+03,7.665653e+02
2.714319e+03,7.392991e+02
2.725890e+03,7.376232e+02
2.737460e+03,7.197731e+02
2.749031e+03,7.238323e+02
2.760602e+03,7.123397e+02
2.772173e+03,7.004158e+02
2.783744e+03,7.017911e+02
2.795314e+03,6.885940e+02
2.806885e+03,6.862303e+02
2.818456e+03,6.914935e+02
2.830027e+03,6.711264e+02
2.841598e+03,6.580543e+02
2.853168e+03,6.685812e+02
2.864739e+03,6.658180e+02
2.876310e+03,6.795317e+02
2.887881e+03,6.756111e+02
2.899452e+03,6.643214e+02
2.911022e+03,6.671371e+02
2.922593e+03,6.492802e+02
2.934164e+03,6.441839e+02
2.945735e+03,6.218160e+02
2.957306e+03,6.338329e+02
2.968876e+03,6.162509e+02
2.980447e+03,5.895938e+02
2.992018e+03,6.001930e+02
3.003589e+03,6.066136e+02
3.015160e+03,5.774922e+02
3.026730e+03,5.924674e+02
3.038301e+03,5.768789e+02
3.049872e+03,5.811661e+02
3.061443e+03,5.506375e+02
3.073014e+03,5.686219e+02
3.084584e+03,5.690338e+02
3.096155e+03,5.510090e+02
3.107726e+03,5.773575e+02
3.119297e+03,5.887112e+02
3.130868e+03,5.987231e+02
3.142438e+03,5.965014e+02
3.154009e+03,5.702494e+02
3.165580e+03,6.102673e+02
3.177151e+03,5.631525e+02
3.188722e+03,5.460065e+02
3.200292e+03,6.017542e+02
3.211863e+03,0.000000e+00
3.223434e+03,0.000000e+00
3.235005e+03,0.000000e+00
3.246576e+03,0.000000e+00
3.258146e+03,0.000000e+00
3.269717e+03,0.000000e+00
3.281288e+03,0.000000e+00
3.292859e+03,0.000000e+00
3.304430e+03,0.000000e+00
3.316000e+03,0.000000e+00
3.327571e+03,0.000000e+00
3.339142e+03,0.000000e+00
3.350713e+03,0.000000e+00
3.362284e+03,0.000000e+00
3.373854e+03,0.000000e+00
3.385425e+03,0.000000e+00
3.396996e+03,0.000000e+00
3.408567e+03,0.000000e+00
3.420138e+03,0.000000e+00
3.431708e+03,0.000000e+00
3.443279e+03,0.000000e+00
3.454850e+03,0.000000e+00
3.466421e+03,0.000000e+00
3.477992e+03,0.000000e+00
3.489563e+03,0.000000e+00
3.500169e+03,0.000000e+00

File: blue fibre9.CSV
9.931763e+01,0.000000e+00
1.108884e+02,0.000000e+00
1.224592e+02,0.000000e+00
1.340300e+02,0.000000e+00
1.456008e+02,0.000000e+00
1.571716e+02,0.000000e+00
1.687424e+02,0.000000e+00
1.803132e+02,0.000000e+00
1.918840e+02,0.000000e+00
2.034548e+02,3.735760e+03
2.150256e+02,3.734805e+03
2.265964e+02,3.772780e+03
2.381673e+02,3.824703e+03
2.497381e+02,3.862200e+03
2.613088e+02,3.879448e+03
2.728796e+02,3.933067e+03
2.844504e+02,3.962289e+03
2.960212e+02,3.973870e+03
3.075920e+02,3.961786e+03
3.191628e+02,3.982262e+03
3.307336e+02,4.004722e+03
3.423044e+02,4.042099e+03
3.538752e+02,4.038806e+03
3.654461e+02,4.036813e+03
3.770169e+02,4.082752e+03
3.885877e+02,4.088756e+03
4.001585e+02,4.078176e+03
4.117293e+02,4.080032e+03
4.233001e+02,4.094784e+03
4.348709e+02,4.108741e+03
4.464417e+02,4.107197e+03
4.580125e+02,4.109667e+03
4.695833e+02,4.099310e+03
4.811541e+02,4.097348e+03
4.927249e+02,4.111477e+03
5.042957e+02,4.117928e+03
5.158665e+02,4.113389e+03
5.274373e+02,4.117053e+03
5.390081e+02,4.121286e+03
5.505789e+02,4.130935e+03
5.621497e+02,4.115915e+03
5.737205e+02,4.087119e+03
5.852913e+02,4.066302e+03
5.968621e+02,4.077686e+03
6.084329e+02,4.087796e+03
6.200037e+02,4.043507e+03
6.315745e+02,4.047327e+03
6.431453e+02,4.019905e+03
6.547161e+02,4.006434e+03
6.662869e+02,3.967533e+03
6.778577e+02,3.943928e+03
6.894285e+02,3.942245e+03
7.009993e+02,3.917627e+03
7.125701e+02,3.902525e+03
7.241409e+02,3.883820e+03
7.357117e+02,3.846245e+03
7.472825e+02,3.846716e+03
7.588533e+02,3.825343e+03
7.704241e+02,3.804438e+03
7.819949e+02,3.785134e+03
7.935657e+02,3.762062e+03
8.051365e+02,3.743965e+03
8.167073e+02,3.708823e+03
8.282781e+02,3.697636e+03
8.398489e+02,3.681811e+03
8.514197e+02,3.646967e+03
8.629905e+02,3.616863e+03
8.745613e+02,3.590002e+03
8.861321e+02,3.592971e+03
8.977029e+02,3.547676e+03
9.092737e+02,3.521583e+03
9.208445e+02,3.476845e+03
9.324153e+02,3.473395e+03
9.439861e+02,3.422003e+03
9.555569e+02,3.406297e+03
9.671277e+02,3.379801e+03
9.786985e+02,3.351063e+03
9.902693e+02,3.345084e+03
1.001840e+03,3.297020e+03
1.013411e+03,3.285906e+03
1.024982e+03,3.261062e+03
1.036552e+03,3.232331e+03
1.048123e+03,3.212448e+03
1.059694e+03,3.171217e+03
1.071265e+03,3.180194e+03
1.082836e+03,3.161537e+03
1.094406e+03,3.133768e+03
1.105977e+03,3.094635e+03
1.117548e+03,3.061804e+03
1.129119e+03,3.027265e+03
1.140690e+03,3.016714e+03
1.152261e+03,2.993971e+03
1.163831e+03,2.951780e+03
1.175402e+03,2.933301e+03
1.186973e+03,2.902671e+03
1.198544e+03,2.891674e+03
1.210115e+03,2.847439e+03
1.221685e+03,2.822745e+03
1.233256e+03,2.800817e+03
1.244827e+03,2.785285e+03
1.256398e+03,2.771323e+03
1.267969e+03,2.739114e+03
1.279539e+03,2.723380e+03
1.291110e+03,2.712274e+03
1.302681e+03,2.683643e+03
1.314252e+03,2.667803e+03
1.325823e+03,2.640405e+03
1.337393e+03,2.623958e+03
1.348964e+03,2.605517e+03
1.360535e+03,2.589122e+03
1.372106e+03,2.567718e+03
1.383677e+03,2.552907e+03
1.395247e+03,2.515232e+03
1.406818e+03,2.487944e+03
1.418389e+03,2.482336e+03
1.429960e+03,2.456875e+03
1.441531e+03,2.439487e+03
1.453101e+03,2.428352e+03
1.464672e+03,2.401469e+03
1.476243e+03,2.386229e+03
1.487814e+03,2.370955e+03
1.499385e+03,2.347537e+03
1.510955e+03,2.343638e+03
1.522526e+03,2.312634e+03
1.534097e+03,2.302339e+03
1.545668e+03,2.269503e+03
1.557239e+03,2.280269e+03
1.568809e+03,2.312509e+03
1.580380e+03,2.280965e+03
1.591951e+03,2.221124e+03
1.603522e+03,2.191853e+03
1.615093e+03,2.188914e+03
1.626663e+03,2.171953e+03
1.638234e+03,2.149337e+03
1.649805e+03,2.131317e+03
1.661376e+03,2.106629e+03
1.672947e+03,2.086756e+03
1.684517e+03,2.067181e+03
1.696088e+03,2.061349e+03
1.707659e+03,2.040761e+03
1.719230e+03,2.029627e+03
1.730801e+03,2.003440e+03
1.742371e+03,1.992408e+03
1.753942e+03,1.962620e+03
1.765513e+03,1.964307e+03
1.777084e+03,1.938488e+03
1.788655e+03,1.923196e+03
1.800225e+03,1.913259e+03
1.811796e+03,1.884580e+03
1.823367e+03,1.865173e+03
1.834938e+03,1.856988e+03
1.846509e+03,1.858148e+03
1.858079e+03,1.830954e+03
1.869650e+03,1.810121e+03
1.881221e+03,1.792585e+03
1.892792e+03,1.780159e+03
1.904363e+03,1.746895e+03
1.915933e+03,1.724667e+03
1.927504e+03,1.709470e+03
1.939075e+03,1.699400e+03
1.950646e+03,1.700272e+03
1.962217e+03,1.668412e+03
1.973787e+03,1.655763e+03
1.985358e+03,1.641347e+03
1.996929e+03,1.642132e+03
2.008500e+03,1.618110e+03
2.020071e+03,1.595275e+03
2.031641e+03,1.573149e+03
2.043212e+03,1.554200e+03
2.054783e+03,1.520877e+03
2.066354e+03,1.523994e+03
2.077925e+03,1.525289e+03
2.089496e+03,1.490332e+03
2.101066e+03,1.474814e+03
2.112637e+03,1.435846e+03
2.124208e+03,1.452698e+03
2.135779e+03,1.418684e+03
2.147350e+03,1.377974e+03
2.158920e+03,1.384753e+03
2.170491e+03,1.372319e+03
2.182062e+03,1.364498e+03
2.193633e+03,1.316318e+03
2.205204e+03,1.336503e+03
2.216774e+03,1.313422e+03
2.228345e+03,1.285779e+03
2.239916e+03,1.264259e+03
2.251487e+03,1.259440e+03
2.263058e+03,1.245303e+03
2.274628e+03,1.229768e+03
2.286199e+03,1.210279e+03
2.297770e+03,1.201457e+03
2.309341e+03,1.187907e+03
2.320912e+03,1.165586e+03
2.332482e+03,1.161646e+03
2.344053e+03,1.147242e+03
2.355624e+03,1.119930e+03
2.367195e+03,1.101637e+03
2.378766e+03,1.094337e+03
2.390336e+03,1.097085e+03
2.401907e+03,1.071373e+03
2.413478e+03,1.049124e+03
2.425049e+03,1.044941e+03
2.436620e+03,1.035494e+03
2.448190e+03,1.017561e+03
2.459761e+03,1.006938e+03
2.471332e+03,9.891645e+02
2.482903e+03,9.711691e+02
2.494474e+03,9.721166e+02
2.506044e+03,9.709949e+02
2.517615e+03,9.368105e+02
2.529186e+03,9.391631e+02
2.540757e+03,9.173535e+02
2.552328e+03,9.102269e+02
2.563898e+03,9.129114e+02
2.575469e+03,8.911729e+02
2.587040e+03,8.703391e+02
2.598611e+03,8.709318e+02
2.610182e+03,8.667667e+02
2.621752e+03,8.364389e+02
2.633323e+03,8.342445e+02
2.644894e+03,8.305507e+02
2.656465e+03,8.263549e+02
2.668036e+03,8.351713e+02
2.679606e+03,8.138517e+02
2.691177e+03,7.996771e+02
2.702748e+03,7.799013e+02
2.714319e+03,7.804764e+02
2.725890e+03,7.742582e+02
2.737460e+03,7.656455e+02
2.749031e+03,7.629596e+02
2.760602e+03,7.633800e+02
2.772173e+03,7.655807e+02
2.783744e+03,7.386373e+02
2.795314e+03,7.373222e+02
2.806885e+03,7.346866e+02
2.818456e+03,7.426969e+02
2.830027e+03,7.118746e+02
2.841598e+03,7.202811e+02
2.853168e+03,7.102435e+02
2.864739e+03,7.126430e+02
2.876310e+03,7.305420e+02
2.887881e+03,7.094941e+02
2.899452e+03,7.224710e+02
2.911022e+03,7.247446e+02
2.922593e+03,6.935599e+02
2.934164e+03,6.748560e+02
2.945735e+03,6.794248e+02
2.957306e+03,7.088420e+02
2.968876e+03,6.281217e+02
2.980447e+03,6.566590e+02
2.992018e+03,6.137050e+02
3.003589e+03,6.417567e+02
3.015160e+03,6.472531e+02
3.026730e+03,6.321476e+02
3.038301e+03,6.322122e+02
3.049872e+03,6.251258e+02
3.061443e+03,6.006064e+02
3.073014e+03,6.249594e+02
3.084584e+03,5.989692e+02
3.096155e+03,6.023226e+02
3.107726e+03,6.166550e+02
3.119297e+03,5.899880e+02
3.130868e+03,6.412694e+02
3.142438e+03,6.079354e+02
3.154009e+03,6.100292e+02
3.165580e+03,5.845061e+02
3.177151e+03,6.274941e+02
3.188722e+03,6.283301e+02
3.200292e+03,6.577783e+02
3.211863e+03,0.000000e+00
3.223434e+03,0.000000e+00
3.235005e+03,0.000000e+00
3.246576e+03,0.000000e+00
3.258146e+03,0.000000e+00
3.269717e+03,0.000000e+00
3.281288e+03,0.000000e+00
3.292859e+03,0.000000e+00
3.304430e+03,0.000000e+00
3.316000e+03,0.000000e+00
3.327571e+03,0.000000e+00
3.339142e+03,0.000000e+00
3.350713e+03,0.000000e+00
3.362284e+03,0.000000e+00
3.373854e+03,0.000000e+00
3.385425e+03,0.000000e+00
3.396996e+03,0.000000e+00
3.408567e+03,0.000000e+00
3.420138e+03,0.000000e+00
3.431708e+03,0.000000e+00
3.443279e+03,0.000000e+00
3.454850e+03,0.000000e+00
3.466421e+03,0.000000e+00
3.477992e+03,0.000000e+00
3.489563e+03,0.000000e+00
3.500169e+03,0.000000e+00

File: blue fibre10.CSV
9.931763e+01,0.000000e+00
1.108884e+02,0.000000e+00
1.224592e+02,0.000000e+00
1.340300e+02,0.000000e+00
1.456008e+02,0.000000e+00
1.571716e+02,0.000000e+00
1.687424e+02,0.000000e+00
1.803132e+02,0.000000e+00
1.918840e+02,0.000000e+00
2.034548e+02,7.591192e+03
2.150256e+02,7.688266e+03
2.265964e+02,7.798915e+03
2.381673e+02,7.936742e+03
2.497381e+02,8.109132e+03
2.613088e+02,8.198838e+03
2.728796e+02,8.369614e+03
2.844504e+02,8.490447e+03
2.960212e+02,8.488333e+03
3.075920e+02,8.575475e+03
3.191628e+02,8.651017e+03
3.307336e+02,8.734937e+03
3.423044e+02,8.796724e+03
3.538752e+02,8.887313e+03
3.654461e+02,8.943127e+03
3.770169e+02,9.048881e+03
3.885877e+02,9.084662e+03
4.001585e+02,9.107975e+03
4.117293e+02,9.162024e+03
4.233001e+02,9.219572e+03
4.348709e+02,9.257388e+03
4.464417e+02,9.288915e+03
4.580125e+02,9.294075e+03
4.695833e+02,9.334808e+03
4.811541e+02,9.368710e+03
4.927249e+02,9.387659e+03
5.042957e+02,9.409286e+03
5.158665e+02,9.426563e+03
5.274373e+02,9.479366e+03
5.390081e+02,9.535701e+03
5.505789e+02,9.576108e+03
5.621497e+02,9.623814e+03
5.737205e+02,9.479723e+03
5.852913e+02,9.418524e+03
5.968621e+02,9.547299e+03
6.084329e+02,9.555354e+03
6.200037e+02,9.438660e+03
6.315745e+02,9.405440e+03
6.431453e+02,9.352833e+03
6.547161e+02,9.347610e+03
6.662869e+02,9.321730e+03
6.778577e+02,9.252391e+03
6.894285e+02,9.207373e+03
7.009993e+02,9.188849e+03
7.125701e+02,9.158611e+03
7.241409e+02,9.090031e+03
7.357117e+02,9.049624e+03
7.472825e+02,9.010246e+03
7.588533e+02,8.966806e+03
7.704241e+02,8.892905e+03
7.819949e+02,8.885690e+03
7.935657e+02,8.838229e+03
8.051365e+02,8.744655e+03
8.167073e+02,8.628504e+03
8.282781e+02,8.592447e+03
8.398489e+02,8.567146e+03
8.514197e+02,8.474731e+03
8.629905e+02,8.422447e+03
8.745613e+02,8.385830e+03
8.861321e+02,8.312848e+03
8.977029e+02,8.240649e+03
9.092737e+02,8.149165e+03
9.208445e+02,8.080157e+03
9.324153e+02,8.033357e+03
9.439861e+02,7.905938e+03
9.555569e+02,7.830257e+03
9.671277e+02,7.784532e+03
9.786985e+02,7.753073e+03
9.902693e+02,7.632041e+03
1.001840e+03,7.529373e+03
1.013411e+03,7.509225e+03
1.024982e+03,7.455549e+03
1.036552e+03,7.371993e+03
1.048123e+03,7.299839e+03
1.059694e+03,7.245756e+03
1.071265e+03,7.220188e+03
1.082836e+03,7.194542e+03
1.094406e+03,7.078312e+03
1.105977e+03,7.013408e+03
1.117548e+03,6.971577e+03
1.129119e+03,6.871479e+03
1.140690e+03,6.834468e+03
1.152261e+03,6.749390e+03
1.163831e+03,6.691418e+03
1.175402e+03,6.597861e+03
1.186973e+03,6.556218e+03
1.198544e+03,6.522608e+03
1.210115e+03,6.452335e+03
1.221685e+03,6.427447e+03
1.233256e+03,6.333131e+03
1.244827e+03,6.291978e+03
1.256398e+03,6.241331e+03
1.267969e+03,6.162635e+03
1.279539e+03,6.081850e+03
1.291110e+03,6.061892e+03
1.302681e+03,5.979524e+03
1.314252e+03,5.935492e+03
1.325823e+03,5.899447e+03
1.337393e+03,5.870278e+03
1.348964e+03,5.834445e+03
1.360535e+03,5.791219e+03
1.372106e+03,5.712088e+03
1.383677e+03,5.678170e+03
1.395247e+03,5.610347e+03
1.406818e+03,5.582250e+03
1.418389e+03,5.514098e+03
1.429960e+03,5.503496e+03
1.441531e+03,5.440680e+03
1.453101e+03,5.440735e+03
1.464672e+03,5.392999e+03
1.476243e+03,5.324319e+03
1.487814e+03,5.305907e+03
1.499385e+03,5.223802e+03
1.510955e+03,5.234602e+03
1.522526e+03,5.180495e+03
1.534097e+03,5.127318e+03
1.545668e+03,5.048456e+03
1.557239e+03,5.062536e+03
1.568809e+03,5.268026e+03
1.580380e+03,5.108465e+03
1.591951e+03,4.934481e+03
1.603522e+03,4.917155e+03
1.615093e+03,4.854844e+03
1.626663e+03,4.821542e+03
1.638234e+03,4.749383e+03
1.649805e+03,4.690268e+03
1.661376e+03,4.647395e+03
1.672947e+03,4.640496e+03
1.684517e+03,4.562764e+03
1.696088e+03,4.559533e+03
1.707659e+03,4.504103e+03
1.719230e+03,4.451875e+03
1.730801e+03,4.401521e+03
1.742371e+03,4.385456e+03
1.753942e+03,4.333876e+03
1.765513e+03,4.249296e+03
1.777084e+03,4.210427e+03
1.788655e+03,4.159453e+03
1.800225e+03,4.147603e+03
1.811796e+03,4.099579e+03
1.823367e+03,4.053113e+03
1.834938e+03,4.022510e+03
1.846509e+03,3.999000e+03
1.858079e+03,3.932591e+03
1.869650e+03,3.914236e+03
1.881221e+03,3.858631e+03
1.892792e+03,3.818450e+03
1.904363e+03,3.756680e+03
1.915933e+03,3.715737e+03
1.927504e+03,3.673553e+03
1.939075e+03,3.653155e+03
1.950646e+03,3.581833e+03
1.962217e+03,3.551202e+03
1.973787e+03,3.516102e+03
1.985358e+03,3.466448e+03
1.996929e+03,3.426320e+03
2.008500e+03,3.385077e+03
2.020071e+03,3.341147e+03
2.031641e+03,3.307888e+03
2.043212e+03,3.270721e+03
2.054783e+03,3.202697e+03
2.066354e+03,3.171753e+03
2.077925e+03,3.164094e+03
2.089496e+03,3.124042e+03
2.101066e+03,3.069971e+03
2.112637e+03,3.040226e+03
2.124208e+03,3.008352e+03
2.135779e+03,2.954691e+03
2.147350e+03,2.892878e+03
2.158920e+03,2.880072e+03
2.170491e+03,2.860023e+03
2.182062e+03,2.824058e+03
2.193633e+03,2.766721e+03
2.205204e+03,2.774093e+03
2.216774e+03,2.746177e+03
2.228345e+03,2.659318e+03
2.239916e+03,2.630297e+03
2.251487e+03,2.594204e+03
2.263058e+03,2.569047e+03
2.274628e+03,2.521702e+03
2.286199e+03,2.464615e+03
2.297770e+03,2.461628e+03
2.309341e+03,2.438089e+03
2.320912e+03,2.390009e+03
2.332482e+03,2.361619e+03
2.344053e+03,2.337941e+03
2.355624e+03,2.318386e+03
2.367195e+03,2.284956e+03
2.378766e+03,2.243774e+03
2.390336e+03,2.202604e+03
2.401907e+03,2.202623e+03
2.413478e+03,2.160796e+03
2.425049e+03,2.127402e+03
2.436620e+03,2.111056e+03
2.448190e+03,2.082839e+03
2.459761e+03,2.081213e+03
2.471332e+03,2.028800e+03
2.482903e+03,1.987501e+03
2.494474e+03,1.979755e+03
2.506044e+03,1.946292e+03
2.517615e+03,1.919833e+03
2.529186e+03,1.901479e+03
2.540757e+03,1.856743e+03
2.552328e+03,1.851863e+03
2.563898e+03,1.845418e+03
2.575469e+03,1.811702e+03
2.587040e+03,1.779647e+03
2.598611e+03,1.746356e+03
2.610182e+03,1.756657e+03
2.621752e+03,1.737337e+03
2.633323e+03,1.700494e+03
2.644894e+03,1.676743e+03
2.656465e+03,1.661502e+03
2.668036e+03,1.657961e+03
2.679606e+03,1.632908e+03
2.691177e+03,1.625354e+03
2.702748e+03,1.624684e+03
2.714319e+03,1.569853e+03
2.725890e+03,1.558163e+03
2.737460e+03,1.518838e+03
2.749031e+03,1.517301e+03
2.760602e+03,1.492556e+03
2.772173e+03,1.458069e+03
2.783744e+03,1.485250e+03
2.795314e+03,1.452925e+03
2.806885e+03,1.434576e+03
2.818456e+03,1.405233e+03
2.830027e+03,1.414644e+03
2.841598e+03,1.382449e+03
2.853168e+03,1.399966e+03
2.864739e+03,1.362626e+03
2.876310e+03,1.356795e+03
2.887881e+03,1.361669e+03
2.899452e+03,1.358746e+03
2.911022e+03,1.323309e+03
2.922593e+03,1.315809e+03
2.934164e+03,1.302202e+03
2.945735e+03,1.283944e+03
2.957306e+03,1.319763e+03
2.968876e+03,1.247833e+03
2.980447e+03,1.240464e+03
2.992018e+03,1.260599e+03
3.003589e+03,1.232764e+03
3.015160e+03,1.213131e+03
3.026730e+03,1.176280e+03
3.038301e+03,1.188158e+03
3.049872e+03,1.186572e+03
3.061443e+03,1.179093e+03
3.073014e+03,1.175906e+03
3.084584e+03,1.168613e+03
3.096155e+03,1.156944e+03
3.107726e+03,1.134319e+03
3.119297e+03,1.182056e+03
3.130868e+03,1.159069e+03
3.142438e+03,1.186897e+03
3.154009e+03,1.151842e+03
3.165580e+03,1.201469e+03
3.177151e+03,1.158738e+03
3.188722e+03,1.197443e+03
3.200292e+03,1.223182e+03
3.211863e+03,0.000000e+00
3.223434e+03,0.000000e+00
3.235005e+03,0.000000e+00
3.246576e+03,0.000000e+00
3.258146e+03,0.000000e+00
3.269717e+03,0.000000e+00
3.281288e+03,0.000000e+00
3.292859e+03,0.000000e+00
3.304430e+03,0.000000e+00
3.316000e+03,0.000000e+00
3.327571e+03,0.000000e+00
3.339142e+03,0.000000e+00
3.350713e+03,0.000000e+00
3.362284e+03,0.000000e+00
3.373854e+03,0.000000e+00
3.385425e+03,0.000000e+00
3.396996e+03,0.000000e+00
3.408567e+03,0.000000e+00
3.420138e+03,0.000000e+00
3.431708e+03,0.000000e+00
3.443279e+03,0.000000e+00
3.454850e+03,0.000000e+00
3.466421e+03,0.000000e+00
3.477992e+03,0.000000e+00
3.489563e+03,0.000000e+00
3.500169e+03,0.000000e+00