Folder: Taff_Bargoed_microplastics_data/RAMAN_data/23052023_r3 (part 3)

File: blue fibre5.CSV
9.931763e+01,0.000000e+00
1.108884e+02,0.000000e+00
1.224592e+02,0.000000e+00
1.340300e+02,0.000000e+00
1.456008e+02,0.000000e+00
1.571716e+02,0.000000e+00
1.687424e+02,0.000000e+00
1.803132e+02,0.000000e+00
1.918840e+02,0.000000e+00
2.034548e+02,5.284385e+03
2.150256e+02,5.346655e+03
2.265964e+02,5.428662e+03
2.381673e+02,5.537640e+03
2.497381e+02,5.640760e+03
2.613088e+02,5.702272e+03
2.728796e+02,5.806695e+03
2.844504e+02,5.867694e+03
2.960212e+02,5.875365e+03
3.075920e+02,5.909341e+03
3.191628e+02,6.005615e+03
3.307336e+02,6.039483e+03
3.423044e+02,6.098043e+03
3.538752e+02,6.134153e+03
3.654461e+02,6.135733e+03
3.770169e+02,6.225733e+03
3.885877e+02,6.239039e+03
4.001585e+02,6.269363e+03
4.117293e+02,6.289947e+03
4.233001e+02,6.316258e+03
4.348709e+02,6.344024e+03
4.464417e+02,6.336573e+03
4.580125e+02,6.351314e+03
4.695833e+02,6.390595e+03
4.811541e+02,6.370051e+03
4.927249e+02,6.386597e+03
5.042957e+02,6.387579e+03
5.158665e+02,6.399721e+03
5.274373e+02,6.417179e+03
5.390081e+02,6.437446e+03
5.505789e+02,6.454444e+03
5.621497e+02,6.468936e+03
5.737205e+02,6.361202e+03
5.852913e+02,6.353089e+03
5.968621e+02,6.395247e+03
6.084329e+02,6.417419e+03
6.200037e+02,6.318674e+03
6.315745e+02,6.300174e+03
6.431453e+02,6.272206e+03
6.547161e+02,6.253536e+03
6.662869e+02,6.226231e+03
6.778577e+02,6.161140e+03
6.894285e+02,6.136338e+03
7.009993e+02,6.078636e+03
7.125701e+02,6.064411e+03
7.241409e+02,6.016995e+03
7.357117e+02,5.941122e+03
7.472825e+02,5.960541e+03
7.588533e+02,5.901685e+03
7.704241e+02,5.872197e+03
7.819949e+02,5.833128e+03
7.935657e+02,5.793103e+03
8.051365e+02,5.719795e+03
8.167073e+02,5.668785e+03
8.282781e+02,5.640510e+03
8.398489e+02,5.619778e+03
8.514197e+02,5.557476e+03
8.629905e+02,5.524983e+03
8.745613e+02,5.446396e+03
8.861321e+02,5.458908e+03
8.977029e+02,5.390320e+03
9.092737e+02,5.323584e+03
9.208445e+02,5.245256e+03
9.324153e+02,5.209709e+03
9.439861e+02,5.174920e+03
9.555569e+02,5.102995e+03
9.671277e+02,5.072496e+03
9.786985e+02,5.004881e+03
9.902693e+02,4.979170e+03
1.001840e+03,4.916326e+03
1.013411e+03,4.856444e+03
1.024982e+03,4.817157e+03
1.036552e+03,4.786668e+03
1.048123e+03,4.723845e+03
1.059694e+03,4.686880e+03
1.071265e+03,4.657357e+03
1.082836e+03,4.647335e+03
1.094406e+03,4.571907e+03
1.105977e+03,4.512138e+03
1.117548e+03,4.499195e+03
1.129119e+03,4.413396e+03
1.140690e+03,4.364292e+03
1.152261e+03,4.326159e+03
1.163831e+03,4.282455e+03
1.175402e+03,4.220446e+03
1.186973e+03,4.198986e+03
1.198544e+03,4.160344e+03
1.210115e+03,4.100392e+03
1.221685e+03,4.094375e+03
1.233256e+03,4.058397e+03
1.244827e+03,3.988386e+03
1.256398e+03,3.963896e+03
1.267969e+03,3.915773e+03
1.279539e+03,3.890829e+03
1.291110e+03,3.848010e+03
1.302681e+03,3.809802e+03
1.314252e+03,3.801836e+03
1.325823e+03,3.764040e+03
1.337393e+03,3.733682e+03
1.348964e+03,3.696868e+03
1.360535e+03,3.672986e+03
1.372106e+03,3.645661e+03
1.383677e+03,3.598385e+03
1.395247e+03,3.560394e+03
1.406818e+03,3.527241e+03
1.418389e+03,3.503300e+03
1.429960e+03,3.479873e+03
1.441531e+03,3.452271e+03
1.453101e+03,3.444635e+03
1.464672e+03,3.411386e+03
1.476243e+03,3.364379e+03
1.487814e+03,3.337012e+03
1.499385e+03,3.324072e+03
1.510955e+03,3.288839e+03
1.522526e+03,3.266380e+03
1.534097e+03,3.219707e+03
1.545668e+03,3.192704e+03
1.557239e+03,3.208440e+03
1.568809e+03,3.365649e+03
1.580380e+03,3.247243e+03
1.591951e+03,3.107609e+03
1.603522e+03,3.085085e+03
1.615093e+03,3.048248e+03
1.626663e+03,3.042882e+03
1.638234e+03,2.992918e+03
1.649805e+03,2.965479e+03
1.661376e+03,2.940546e+03
1.672947e+03,2.916319e+03
1.684517e+03,2.876904e+03
1.696088e+03,2.864180e+03
1.707659e+03,2.832218e+03
1.719230e+03,2.794147e+03
1.730801e+03,2.771399e+03
1.742371e+03,2.750950e+03
1.753942e+03,2.731749e+03
1.765513e+03,2.685948e+03
1.777084e+03,2.649214e+03
1.788655e+03,2.632692e+03
1.800225e+03,2.622058e+03
1.811796e+03,2.586786e+03
1.823367e+03,2.553155e+03
1.834938e+03,2.545777e+03
1.846509e+03,2.506392e+03
1.858079e+03,2.467925e+03
1.869650e+03,2.449752e+03
1.881221e+03,2.429393e+03
1.892792e+03,2.403702e+03
1.904363e+03,2.379872e+03
1.915933e+03,2.348531e+03
1.927504e+03,2.329213e+03
1.939075e+03,2.321041e+03
1.950646e+03,2.277664e+03
1.962217e+03,2.254917e+03
1.973787e+03,2.225469e+03
1.985358e+03,2.195304e+03
1.996929e+03,2.161896e+03
2.008500e+03,2.131301e+03
2.020071e+03,2.121757e+03
2.031641e+03,2.087150e+03
2.043212e+03,2.060982e+03
2.054783e+03,2.024943e+03
2.066354e+03,2.010325e+03
2.077925e+03,1.984199e+03
2.089496e+03,1.969866e+03
2.101066e+03,1.934354e+03
2.112637e+03,1.906658e+03
2.124208e+03,1.896458e+03
2.135779e+03,1.853600e+03
2.147350e+03,1.828442e+03
2.158920e+03,1.808837e+03
2.170491e+03,1.824061e+03
2.182062e+03,1.772337e+03
2.193633e+03,1.733866e+03
2.205204e+03,1.719762e+03
2.216774e+03,1.717426e+03
2.228345e+03,1.668850e+03
2.239916e+03,1.649567e+03
2.251487e+03,1.622852e+03
2.263058e+03,1.592636e+03
2.274628e+03,1.577321e+03
2.286199e+03,1.548975e+03
2.297770e+03,1.556164e+03
2.309341e+03,1.508791e+03
2.320912e+03,1.507794e+03
2.332482e+03,1.479451e+03
2.344053e+03,1.466256e+03
2.355624e+03,1.457375e+03
2.367195e+03,1.416319e+03
2.378766e+03,1.404218e+03
2.390336e+03,1.384785e+03
2.401907e+03,1.382788e+03
2.413478e+03,1.348619e+03
2.425049e+03,1.334994e+03
2.436620e+03,1.311962e+03
2.448190e+03,1.300922e+03
2.459761e+03,1.275706e+03
2.471332e+03,1.264573e+03
2.482903e+03,1.243012e+03
2.494474e+03,1.219236e+03
2.506044e+03,1.222134e+03
2.517615e+03,1.204312e+03
2.529186e+03,1.178852e+03
2.540757e+03,1.163899e+03
2.552328e+03,1.168041e+03
2.563898e+03,1.134149e+03
2.575469e+03,1.133030e+03
2.587040e+03,1.108899e+03
2.598611e+03,1.082664e+03
2.610182e+03,1.095019e+03
2.621752e+03,1.090516e+03
2.633323e+03,1.049961e+03
2.644894e+03,1.026299e+03
2.656465e+03,1.039621e+03
2.668036e+03,1.016542e+03
2.679606e+03,1.011177e+03
2.691177e+03,9.920549e+02
2.702748e+03,9.915497e+02
2.714319e+03,9.741236e+02
2.725890e+03,9.543863e+02
2.737460e+03,9.445292e+02
2.749031e+03,9.550579e+02
2.760602e+03,9.342923e+02
2.772173e+03,9.075333e+02
2.783744e+03,9.125358e+02
2.795314e+03,8.943439e+02
2.806885e+03,9.454594e+02
2.818456e+03,8.874869e+02
2.830027e+03,8.622037e+02
2.841598e+03,8.587575e+02
2.853168e+03,8.666281e+02
2.864739e+03,8.330752e+02
2.876310e+03,8.534442e+02
2.887881e+03,8.732248e+02
2.899452e+03,8.621895e+02
2.911022e+03,8.346808e+02
2.922593e+03,8.173575e+02
2.934164e+03,8.158551e+02
2.945735e+03,8.164740e+02
2.957306e+03,8.540036e+02
2.968876e+03,7.893292e+02
2.980447e+03,7.811406e+02
2.992018e+03,7.878743e+02
3.003589e+03,7.624987e+02
3.015160e+03,7.707518e+02
3.026730e+03,7.613781e+02
3.038301e+03,7.680276e+02
3.049872e+03,7.486381e+02
3.061443e+03,7.575670e+02
3.073014e+03,7.480078e+02
3.084584e+03,7.454040e+02
3.096155e+03,7.365756e+02
3.107726e+03,7.062634e+02
3.119297e+03,7.394278e+02
3.130868e+03,7.632253e+02
3.142438e+03,7.362098e+02
3.154009e+03,7.537360e+02
3.165580e+03,7.390625e+02
3.177151e+03,7.426420e+02
3.188722e+03,7.491982e+02
3.200292e+03,7.824808e+02
3.211863e+03,0.000000e+00
3.223434e+03,0.000000e+00
3.235005e+03,0.000000e+00
3.246576e+03,0.000000e+00
3.258146e+03,0.000000e+00
3.269717e+03,0.000000e+00
3.281288e+03,0.000000e+00
3.292859e+03,0.000000e+00
3.304430e+03,0.000000e+00
3.316000e+03,0.000000e+00
3.327571e+03,0.000000e+00
3.339142e+03,0.000000e+00
3.350713e+03,0.000000e+00
3.362284e+03,0.000000e+00
3.373854e+03,0.000000e+00
3.385425e+03,0.000000e+00
3.396996e+03,0.000000e+00
3.408567e+03,0.000000e+00
3.420138e+03,0.000000e+00
3.431708e+03,0.000000e+00
3.443279e+03,0.000000e+00
3.454850e+03,0.000000e+00
3.466421e+03,0.000000e+00
3.477992e+03,0.000000e+00
3.489563e+03,0.000000e+00
3.500169e+03,0.000000e+00

File: blue fibre6.CSV
9.931763e+01,0.000000e+00
1.108884e+02,0.000000e+00
1.224592e+02,0.000000e+00
1.340300e+02,0.000000e+00
1.456008e+02,0.000000e+00
1.571716e+02,0.000000e+00
1.687424e+02,0.000000e+00
1.803132e+02,0.000000e+00
1.918840e+02,0.000000e+00
2.034548e+02,1.052034e+04
2.150256e+02,1.057994e+04
2.265964e+02,1.068749e+04
2.381673e+02,1.083688e+04
2.497381e+02,1.092293e+04
2.613088e+02,1.102010e+04
2.728796e+02,1.114520e+04
2.844504e+02,1.128402e+04
2.960212e+02,1.139113e+04
3.075920e+02,1.148884e+04
3.191628e+02,1.160888e+04
3.307336e+02,1.175929e+04
3.423044e+02,1.189110e+04
3.538752e+02,1.203903e+04
3.654461e+02,1.215143e+04
3.770169e+02,1.231209e+04
3.885877e+02,1.246715e+04
4.001585e+02,1.259571e+04
4.117293e+02,1.274472e+04
4.233001e+02,1.288676e+04
4.348709e+02,1.304558e+04
4.464417e+02,1.321787e+04
4.580125e+02,1.333318e+04
4.695833e+02,1.347626e+04
4.811541e+02,1.360236e+04
4.927249e+02,1.374528e+04
5.042957e+02,1.387435e+04
5.158665e+02,1.399864e+04
5.274373e+02,1.410163e+04
5.390081e+02,1.417050e+04
5.505789e+02,1.428684e+04
5.621497e+02,1.439771e+04
5.737205e+02,1.446703e+04
5.852913e+02,1.457644e+04
5.968621e+02,1.471511e+04
6.084329e+02,1.480400e+04
6.200037e+02,1.484453e+04
6.315745e+02,1.490820e+04
6.431453e+02,1.500872e+04
6.547161e+02,1.510748e+04
6.662869e+02,1.514652e+04
6.778577e+02,1.514802e+04
6.894285e+02,1.519513e+04
7.009993e+02,1.527333e+04
7.125701e+02,1.527668e+04
7.241409e+02,1.522800e+04
7.357117e+02,1.519025e+04
7.472825e+02,1.522025e+04
7.588533e+02,1.512102e+04
7.704241e+02,1.505768e+04
7.819949e+02,1.504094e+04
7.935657e+02,1.495876e+04
8.051365e+02,1.480950e+04
8.167073e+02,1.471225e+04
8.282781e+02,1.464240e+04
8.398489e+02,1.457217e+04
8.514197e+02,1.445116e+04
8.629905e+02,1.436980e+04
8.745613e+02,1.422168e+04
8.861321e+02,1.419404e+04
8.977029e+02,1.403858e+04
9.092737e+02,1.388613e+04
9.208445e+02,1.374090e+04
9.324153e+02,1.366337e+04
9.439861e+02,1.353452e+04
9.555569e+02,1.337127e+04
9.671277e+02,1.328629e+04
9.786985e+02,1.318627e+04
9.902693e+02,1.301434e+04
1.001840e+03,1.288709e+04
1.013411e+03,1.281889e+04
1.024982e+03,1.270409e+04
1.036552e+03,1.259189e+04
1.048123e+03,1.247399e+04
1.059694e+03,1.234168e+04
1.071265e+03,1.233661e+04
1.082836e+03,1.221836e+04
1.094406e+03,1.203747e+04
1.105977e+03,1.190348e+04
1.117548e+03,1.182469e+04
1.129119e+03,1.165289e+04
1.140690e+03,1.159402e+04
1.152261e+03,1.145964e+04
1.163831e+03,1.134034e+04
1.175402e+03,1.119999e+04
1.186973e+03,1.110256e+04
1.198544e+03,1.102958e+04
1.210115e+03,1.090827e+04
1.221685e+03,1.086205e+04
1.233256e+03,1.070406e+04
1.244827e+03,1.060169e+04
1.256398e+03,1.047374e+04
1.267969e+03,1.037009e+04
1.279539e+03,1.027161e+04
1.291110e+03,1.017392e+04
1.302681e+03,1.008905e+04
1.314252e+03,9.987353e+03
1.325823e+03,9.866502e+03
1.337393e+03,9.833907e+03
1.348964e+03,9.749748e+03
1.360535e+03,9.653672e+03
1.372106e+03,9.534357e+03
1.383677e+03,9.413094e+03
1.395247e+03,9.325108e+03
1.406818e+03,9.234382e+03
1.418389e+03,9.194335e+03
1.429960e+03,9.088754e+03
1.441531e+03,8.989025e+03
1.453101e+03,9.008176e+03
1.464672e+03,8.854991e+03
1.476243e+03,8.817112e+03
1.487814e+03,8.692585e+03
1.499385e+03,8.641139e+03
1.510955e+03,8.585337e+03
1.522526e+03,8.488481e+03
1.534097e+03,8.401866e+03
1.545668e+03,8.320535e+03
1.557239e+03,8.336927e+03
1.568809e+03,8.665220e+03
1.580380e+03,8.374320e+03
1.591951e+03,8.100074e+03
1.603522e+03,7.996373e+03
1.615093e+03,7.953083e+03
1.626663e+03,7.891842e+03
1.638234e+03,7.790553e+03
1.649805e+03,7.678067e+03
1.661376e+03,7.636245e+03
1.672947e+03,7.549753e+03
1.684517e+03,7.466700e+03
1.696088e+03,7.409930e+03
1.707659e+03,7.354433e+03
1.719230e+03,7.236411e+03
1.730801e+03,7.215634e+03
1.742371e+03,7.124462e+03
1.753942e+03,7.036732e+03
1.765513e+03,7.006400e+03
1.777084e+03,6.916943e+03
1.788655e+03,6.862226e+03
1.800225e+03,6.780509e+03
1.811796e+03,6.715700e+03
1.823367e+03,6.643783e+03
1.834938e+03,6.605312e+03
1.846509e+03,6.535611e+03
1.858079e+03,6.437102e+03
1.869650e+03,6.375603e+03
1.881221e+03,6.342944e+03
1.892792e+03,6.278098e+03
1.904363e+03,6.198596e+03
1.915933e+03,6.141694e+03
1.927504e+03,6.054055e+03
1.939075e+03,6.004224e+03
1.950646e+03,5.949484e+03
1.962217e+03,5.922614e+03
1.973787e+03,5.800103e+03
1.985358e+03,5.752228e+03
1.996929e+03,5.686745e+03
2.008500e+03,5.634589e+03
2.020071e+03,5.545175e+03
2.031641e+03,5.472540e+03
2.043212e+03,5.404231e+03
2.054783e+03,5.358445e+03
2.066354e+03,5.300098e+03
2.077925e+03,5.250502e+03
2.089496e+03,5.215848e+03
2.101066e+03,5.101624e+03
2.112637e+03,5.054068e+03
2.124208e+03,5.012260e+03
2.135779e+03,4.923034e+03
2.147350e+03,4.881547e+03
2.158920e+03,4.801024e+03
2.170491e+03,4.749934e+03
2.182062e+03,4.687154e+03
2.193633e+03,4.603091e+03
2.205204e+03,4.574562e+03
2.216774e+03,4.512780e+03
2.228345e+03,4.422106e+03
2.239916e+03,4.374798e+03
2.251487e+03,4.339718e+03
2.263058e+03,4.243404e+03
2.274628e+03,4.175745e+03
2.286199e+03,4.095390e+03
2.297770e+03,4.128477e+03
2.309341e+03,4.026681e+03
2.320912e+03,3.963669e+03
2.332482e+03,3.888429e+03
2.344053e+03,3.893570e+03
2.355624e+03,3.825410e+03
2.367195e+03,3.766701e+03
2.378766e+03,3.716952e+03
2.390336e+03,3.646192e+03
2.401907e+03,3.618179e+03
2.413478e+03,3.564725e+03
2.425049e+03,3.537077e+03
2.436620e+03,3.461091e+03
2.448190e+03,3.431857e+03
2.459761e+03,3.363992e+03
2.471332e+03,3.329869e+03
2.482903e+03,3.293569e+03
2.494474e+03,3.229499e+03
2.506044e+03,3.201130e+03
2.517615e+03,3.173993e+03
2.529186e+03,3.122941e+03
2.540757e+03,3.087570e+03
2.552328e+03,3.043611e+03
2.563898e+03,2.996866e+03
2.575469e+03,2.982660e+03
2.587040e+03,2.925792e+03
2.598611e+03,2.894203e+03
2.610182e+03,2.851519e+03
2.621752e+03,2.835723e+03
2.633323e+03,2.803400e+03
2.644894e+03,2.731077e+03
2.656465e+03,2.746327e+03
2.668036e+03,2.734740e+03
2.679606e+03,2.655581e+03
2.691177e+03,2.636120e+03
2.702748e+03,2.629031e+03
2.714319e+03,2.577890e+03
2.725890e+03,2.528152e+03
2.737460e+03,2.539228e+03
2.749031e+03,2.488476e+03
2.760602e+03,2.459143e+03
2.772173e+03,2.417277e+03
2.783744e+03,2.407858e+03
2.795314e+03,2.345073e+03
2.806885e+03,2.378951e+03
2.818456e+03,2.339285e+03
2.830027e+03,2.336831e+03
2.841598e+03,2.280651e+03
2.853168e+03,2.303968e+03
2.864739e+03,2.278609e+03
2.876310e+03,2.233683e+03
2.887881e+03,2.217119e+03
2.899452e+03,2.213459e+03
2.911022e+03,2.153320e+03
2.922593e+03,2.142523e+03
2.934164e+03,2.140279e+03
2.945735e+03,2.096669e+03
2.957306e+03,2.159923e+03
2.968876e+03,2.060774e+03
2.980447e+03,2.056068e+03
2.992018e+03,2.014353e+03
3.003589e+03,1.997818e+03
3.015160e+03,1.996684e+03
3.026730e+03,1.981398e+03
3.038301e+03,1.960335e+03
3.049872e+03,1.990161e+03
3.061443e+03,1.971221e+03
3.073014e+03,1.974340e+03
3.084584e+03,1.936204e+03
3.096155e+03,1.948691e+03
3.107726e+03,1.875694e+03
3.119297e+03,1.911366e+03
3.130868e+03,1.932686e+03
3.142438e+03,1.913997e+03
3.154009e+03,1.964094e+03
3.165580e+03,1.972195e+03
3.177151e+03,1.894025e+03
3.188722e+03,1.884628e+03
3.200292e+03,1.939989e+03
3.211863e+03,0.000000e+00
3.223434e+03,0.000000e+00
3.235005e+03,0.000000e+00
3.246576e+03,0.000000e+00
3.258146e+03,0.000000e+00
3.269717e+03,0.000000e+00
3.281288e+03,0.000000e+00
3.292859e+03,0.000000e+00
3.304430e+03,0.000000e+00
3.316000e+03,0.000000e+00
3.327571e+03,0.000000e+00
3.339142e+03,0.000000e+00
3.350713e+03,0.000000e+00
3.362284e+03,0.000000e+00
3.373854e+03,0.000000e+00
3.385425e+03,0.000000e+00
3.396996e+03,0.000000e+00
3.408567e+03,0.000000e+00
3.420138e+03,0.000000e+00
3.431708e+03,0.000000e+00
3.443279e+03,0.000000e+00
3.454850e+03,0.000000e+00
3.466421e+03,0.000000e+00
3.477992e+03,0.000000e+00
3.489563e+03,0.000000e+00
3.500169e+03,0.000000e+00

File: blue fibre7.CSV
9.931763e+01,0.000000e+00
1.108884e+02,0.000000e+00
1.224592e+02,0.000000e+00
1.340300e+02,0.000000e+00
1.456008e+02,0.000000e+00
1.571716e+02,0.000000e+00
1.687424e+02,0.000000e+00
1.803132e+02,0.000000e+00
1.918840e+02,0.000000e+00
2.034548e+02,6.347010e+03
2.150256e+02,6.373924e+03
2.265964e+02,6.447619e+03
2.381673e+02,6.538817e+03
2.497381e+02,6.652495e+03
2.613088e+02,6.704877e+03
2.728796e+02,6.822561e+03
2.844504e+02,6.877490e+03
2.960212e+02,6.900998e+03
3.075920e+02,6.911450e+03
3.191628e+02,6.974789e+03
3.307336e+02,7.040695e+03
3.423044e+02,7.079932e+03
3.538752e+02,7.119838e+03
3.654461e+02,7.145885e+03
3.770169e+02,7.185432e+03
3.885877e+02,7.181737e+03
4.001585e+02,7.194984e+03
4.117293e+02,7.236128e+03
4.233001e+02,7.247084e+03
4.348709e+02,7.267389e+03
4.464417e+02,7.253872e+03
4.580125e+02,7.281156e+03
4.695833e+02,7.264443e+03
4.811541e+02,7.267606e+03
4.927249e+02,7.246330e+03
5.042957e+02,7.273851e+03
5.158665e+02,7.266068e+03
5.274373e+02,7.271512e+03
5.390081e+02,7.298731e+03
5.505789e+02,7.332304e+03
5.621497e+02,7.314300e+03
5.737205e+02,7.213858e+03
5.852913e+02,7.184054e+03
5.968621e+02,7.221385e+03
6.084329e+02,7.212910e+03
6.200037e+02,7.137330e+03
6.315745e+02,7.126428e+03
6.431453e+02,7.083496e+03
6.547161e+02,7.035043e+03
6.662869e+02,7.001415e+03
6.778577e+02,6.954844e+03
6.894285e+02,6.906540e+03
7.009993e+02,6.874532e+03
7.125701e+02,6.833912e+03
7.241409e+02,6.780807e+03
7.357117e+02,6.708835e+03
7.472825e+02,6.683867e+03
7.588533e+02,6.658803e+03
7.704241e+02,6.615664e+03
7.819949e+02,6.556759e+03
7.935657e+02,6.546201e+03
8.051365e+02,6.448035e+03
8.167073e+02,6.385349e+03
8.282781e+02,6.346579e+03
8.398489e+02,6.291588e+03
8.514197e+02,6.264635e+03
8.629905e+02,6.202827e+03
8.745613e+02,6.145911e+03
8.861321e+02,6.124580e+03
8.977029e+02,6.050003e+03
9.092737e+02,5.984978e+03
9.208445e+02,5.919084e+03
9.324153e+02,5.898468e+03
9.439861e+02,5.834287e+03
9.555569e+02,5.775537e+03
9.671277e+02,5.719619e+03
9.786985e+02,5.676674e+03
9.902693e+02,5.604545e+03
1.001840e+03,5.540156e+03
1.013411e+03,5.484564e+03
1.024982e+03,5.445367e+03
1.036552e+03,5.420951e+03
1.048123e+03,5.350156e+03
1.059694e+03,5.290572e+03
1.071265e+03,5.301960e+03
1.082836e+03,5.235771e+03
1.094406e+03,5.203369e+03
1.105977e+03,5.121993e+03
1.117548e+03,5.069008e+03
1.129119e+03,5.022802e+03
1.140690e+03,4.980240e+03
1.152261e+03,4.929266e+03
1.163831e+03,4.871167e+03
1.175402e+03,4.824030e+03
1.186973e+03,4.775615e+03
1.198544e+03,4.751362e+03
1.210115e+03,4.699958e+03
1.221685e+03,4.663317e+03
1.233256e+03,4.617666e+03
1.244827e+03,4.584529e+03
1.256398e+03,4.503439e+03
1.267969e+03,4.467383e+03
1.279539e+03,4.460974e+03
1.291110e+03,4.418562e+03
1.302681e+03,4.370483e+03
1.314252e+03,4.322760e+03
1.325823e+03,4.310191e+03
1.337393e+03,4.280901e+03
1.348964e+03,4.249377e+03
1.360535e+03,4.200759e+03
1.372106e+03,4.173483e+03
1.383677e+03,4.160185e+03
1.395247e+03,4.099160e+03
1.406818e+03,4.061207e+03
1.418389e+03,4.061870e+03
1.429960e+03,4.034634e+03
1.441531e+03,3.980328e+03
1.453101e+03,3.967198e+03
1.464672e+03,3.922385e+03
1.476243e+03,3.891585e+03
1.487814e+03,3.870815e+03
1.499385e+03,3.813858e+03
1.510955e+03,3.801301e+03
1.522526e+03,3.761438e+03
1.534097e+03,3.741517e+03
1.545668e+03,3.696281e+03
1.557239e+03,3.720134e+03
1.568809e+03,3.809993e+03
1.580380e+03,3.711040e+03
1.591951e+03,3.608085e+03
1.603522e+03,3.574948e+03
1.615093e+03,3.534418e+03
1.626663e+03,3.516930e+03
1.638234e+03,3.483280e+03
1.649805e+03,3.428833e+03
1.661376e+03,3.413821e+03
1.672947e+03,3.377836e+03
1.684517e+03,3.368534e+03
1.696088e+03,3.324952e+03
1.707659e+03,3.305759e+03
1.719230e+03,3.260904e+03
1.730801e+03,3.206677e+03
1.742371e+03,3.196600e+03
1.753942e+03,3.134914e+03
1.765513e+03,3.142015e+03
1.777084e+03,3.094665e+03
1.788655e+03,3.070683e+03
1.800225e+03,3.054332e+03
1.811796e+03,3.001190e+03
1.823367e+03,2.939693e+03
1.834938e+03,2.942158e+03
1.846509e+03,2.930714e+03
1.858079e+03,2.913260e+03
1.869650e+03,2.868531e+03
1.881221e+03,2.806372e+03
1.892792e+03,2.806717e+03
1.904363e+03,2.753268e+03
1.915933e+03,2.720160e+03
1.927504e+03,2.699606e+03
1.939075e+03,2.656325e+03
1.950646e+03,2.657313e+03
1.962217e+03,2.625828e+03
1.973787e+03,2.574013e+03
1.985358e+03,2.531355e+03
1.996929e+03,2.507929e+03
2.008500e+03,2.487052e+03
2.020071e+03,2.456304e+03
2.031641e+03,2.425243e+03
2.043212e+03,2.381061e+03
2.054783e+03,2.368761e+03
2.066354e+03,2.336781e+03
2.077925e+03,2.321390e+03
2.089496e+03,2.296875e+03
2.101066e+03,2.266267e+03
2.112637e+03,2.216146e+03
2.124208e+03,2.208329e+03
2.135779e+03,2.178739e+03
2.147350e+03,2.112336e+03
2.158920e+03,2.095765e+03
2.170491e+03,2.084169e+03
2.182062e+03,2.067761e+03
2.193633e+03,2.005144e+03
2.205204e+03,2.016357e+03
2.216774e+03,1.984777e+03
2.228345e+03,1.928713e+03
2.239916e+03,1.911341e+03
2.251487e+03,1.900762e+03
2.263058e+03,1.873880e+03
2.274628e+03,1.836557e+03
2.286199e+03,1.780002e+03
2.297770e+03,1.790044e+03
2.309341e+03,1.769343e+03
2.320912e+03,1.757215e+03
2.332482e+03,1.716959e+03
2.344053e+03,1.710953e+03
2.355624e+03,1.682078e+03
2.367195e+03,1.646787e+03
2.378766e+03,1.635393e+03
2.390336e+03,1.604087e+03
2.401907e+03,1.584436e+03
2.413478e+03,1.553549e+03
2.425049e+03,1.557510e+03
2.436620e+03,1.529723e+03
2.448190e+03,1.504805e+03
2.459761e+03,1.499442e+03
2.471332e+03,1.487631e+03
2.482903e+03,1.460853e+03
2.494474e+03,1.438656e+03
2.506044e+03,1.429785e+03
2.517615e+03,1.402003e+03
2.529186e+03,1.381921e+03
2.540757e+03,1.359326e+03
2.552328e+03,1.350178e+03
2.563898e+03,1.331078e+03
2.575469e+03,1.315711e+03
2.587040e+03,1.309547e+03
2.598611e+03,1.281872e+03
2.610182e+03,1.276211e+03
2.621752e+03,1.257259e+03
2.633323e+03,1.254281e+03
2.644894e+03,1.229703e+03
2.656465e+03,1.209102e+03
2.668036e+03,1.226733e+03
2.679606e+03,1.188446e+03
2.691177e+03,1.172264e+03
2.702748e+03,1.166160e+03
2.714319e+03,1.149070e+03
2.725890e+03,1.138116e+03
2.737460e+03,1.129921e+03
2.749031e+03,1.118579e+03
2.760602e+03,1.117810e+03
2.772173e+03,1.074735e+03
2.783744e+03,1.073628e+03
2.795314e+03,1.036273e+03
2.806885e+03,1.042309e+03
2.818456e+03,1.052047e+03
2.830027e+03,1.030629e+03
2.841598e+03,1.029185e+03
2.853168e+03,1.034063e+03
2.864739e+03,1.035483e+03
2.876310e+03,1.013834e+03
2.887881e+03,1.021814e+03
2.899452e+03,1.011567e+03
2.911022e+03,9.804936e+02
2.922593e+03,9.727890e+02
2.934164e+03,9.530856e+02
2.945735e+03,9.473442e+02
2.957306e+03,9.965803e+02
2.968876e+03,9.490709e+02
2.980447e+03,9.365228e+02
2.992018e+03,9.292693e+02
3.003589e+03,9.082233e+02
3.015160e+03,8.972464e+02
3.026730e+03,9.066599e+02
3.038301e+03,8.790303e+02
3.049872e+03,8.900090e+02
3.061443e+03,8.670621e+02
3.073014e+03,8.986815e+02
3.084584e+03,8.682567e+02
3.096155e+03,8.759501e+02
3.107726e+03,8.270642e+02
3.119297e+03,9.055651e+02
3.130868e+03,8.512229e+02
3.142438e+03,8.807892e+02
3.154009e+03,8.627846e+02
3.165580e+03,8.673898e+02
3.177151e+03,8.701129e+02
3.188722e+03,8.641309e+02
3.200292e+03,9.037752e+02
3.211863e+03,0.000000e+00
3.223434e+03,0.000000e+00
3.235005e+03,0.000000e+00
3.246576e+03,0.000000e+00
3.258146e+03,0.000000e+00
3.269717e+03,0.000000e+00
3.281288e+03,0.000000e+00
3.292859e+03,0.000000e+00
3.304430e+03,0.000000e+00
3.316000e+03,0.000000e+00
3.327571e+03,0.000000e+00
3.339142e+03,0.000000e+00
3.350713e+03,0.000000e+00
3.362284e+03,0.000000e+00
3.373854e+03,0.000000e+00
3.385425e+03,0.000000e+00
3.396996e+03,0.000000e+00
3.408567e+03,0.000000e+00
3.420138e+03,0.000000e+00
3.431708e+03,0.000000e+00
3.443279e+03,0.000000e+00
3.454850e+03,0.000000e+00
3.466421e+03,0.000000e+00
3.477992e+03,0.000000e+00
3.489563e+03,0.000000e+00
3.500169e+03,0.000000e+00