Folder: Taff_Bargoed_microplastics_data/RAMAN_data/23052023_r3

Note: README.md
# Taff_Bargoed_microplastics_data

File: black fibre3.CSV
9.931763e+01,0.000000e+00
1.108884e+02,0.000000e+00
1.224592e+02,0.000000e+00
1.340300e+02,0.000000e+00
1.456008e+02,0.000000e+00
1.571716e+02,0.000000e+00
1.687424e+02,0.000000e+00
1.803132e+02,0.000000e+00
1.918840e+02,0.000000e+00
2.034548e+02,2.901019e+03
2.150256e+02,2.929910e+03
2.265964e+02,2.942911e+03
2.381673e+02,2.947235e+03
2.497381e+02,2.961366e+03
2.613088e+02,2.963274e+03
2.728796e+02,2.999859e+03
2.844504e+02,3.017122e+03
2.960212e+02,3.014104e+03
3.075920e+02,3.007160e+03
3.191628e+02,3.038145e+03
3.307336e+02,3.025891e+03
3.423044e+02,3.042233e+03
3.538752e+02,3.037099e+03
3.654461e+02,3.050926e+03
3.770169e+02,3.048527e+03
3.885877e+02,3.047589e+03
4.001585e+02,3.053218e+03
4.117293e+02,3.065751e+03
4.233001e+02,3.046926e+03
4.348709e+02,3.053860e+03
4.464417e+02,3.053692e+03
4.580125e+02,3.034304e+03
4.695833e+02,3.035187e+03
4.811541e+02,3.075407e+03
4.927249e+02,3.057751e+03
5.042957e+02,3.028166e+03
5.158665e+02,3.010993e+03
5.274373e+02,3.018156e+03
5.390081e+02,3.012306e+03
5.505789e+02,2.992505e+03
5.621497e+02,2.999289e+03
5.737205e+02,2.985773e+03
5.852913e+02,2.966979e+03
5.968621e+02,2.972896e+03
6.084329e+02,2.975052e+03
6.200037e+02,2.954190e+03
6.315745e+02,2.938906e+03
6.431453e+02,2.928102e+03
6.547161e+02,2.916688e+03
6.662869e+02,2.910913e+03
6.778577e+02,2.894606e+03
6.894285e+02,2.862964e+03
7.009993e+02,2.883733e+03
7.125701e+02,2.844005e+03
7.241409e+02,2.846450e+03
7.357117e+02,2.836663e+03
7.472825e+02,2.837829e+03
7.588533e+02,2.789419e+03
7.704241e+02,2.772477e+03
7.819949e+02,2.757038e+03
7.935657e+02,2.769916e+03
8.051365e+02,2.750297e+03
8.167073e+02,2.722463e+03
8.282781e+02,2.723783e+03
8.398489e+02,2.691998e+03
8.514197e+02,2.669223e+03
8.629905e+02,2.666323e+03
8.745613e+02,2.651859e+03
8.861321e+02,2.659276e+03
8.977029e+02,2.626941e+03
9.092737e+02,2.602348e+03
9.208445e+02,2.574370e+03
9.324153e+02,2.580634e+03
9.439861e+02,2.535390e+03
9.555569e+02,2.528101e+03
9.671277e+02,2.507887e+03
9.786985e+02,2.494276e+03
9.902693e+02,2.485558e+03
1.001840e+03,2.471011e+03
1.013411e+03,2.446722e+03
1.024982e+03,2.437577e+03
1.036552e+03,2.415792e+03
1.048123e+03,2.405638e+03
1.059694e+03,2.400000e+03
1.071265e+03,2.383667e+03
1.082836e+03,2.386876e+03
1.094406e+03,2.383531e+03
1.105977e+03,2.346282e+03
1.117548e+03,2.373229e+03
1.129119e+03,2.354765e+03
1.140690e+03,2.344245e+03
1.152261e+03,2.347683e+03
1.163831e+03,2.285317e+03
1.175402e+03,2.273154e+03
1.186973e+03,2.248891e+03
1.198544e+03,2.247503e+03
1.210115e+03,2.227409e+03
1.221685e+03,2.205956e+03
1.233256e+03,2.178986e+03
1.244827e+03,2.181612e+03
1.256398e+03,2.150149e+03
1.267969e+03,2.167669e+03
1.279539e+03,2.185292e+03
1.291110e+03,2.140558e+03
1.302681e+03,2.113995e+03
1.314252e+03,2.101940e+03
1.325823e+03,2.094092e+03
1.337393e+03,2.119601e+03
1.348964e+03,2.088310e+03
1.360535e+03,2.063741e+03
1.372106e+03,2.032190e+03
1.383677e+03,2.028601e+03
1.395247e+03,2.007473e+03
1.406818e+03,1.993841e+03
1.418389e+03,1.984866e+03
1.429960e+03,1.964161e+03
1.441531e+03,1.929450e+03
1.453101e+03,1.926516e+03
1.464672e+03,1.913180e+03
1.476243e+03,1.892825e+03
1.487814e+03,1.876744e+03
1.499385e+03,1.873938e+03
1.510955e+03,1.843820e+03
1.522526e+03,1.837214e+03
1.534097e+03,1.819481e+03
1.545668e+03,1.820502e+03
1.557239e+03,1.818660e+03
1.568809e+03,1.820516e+03
1.580380e+03,1.811282e+03
1.591951e+03,1.792704e+03
1.603522e+03,1.762374e+03
1.615093e+03,1.756715e+03
1.626663e+03,1.724582e+03
1.638234e+03,1.708392e+03
1.649805e+03,1.701862e+03
1.661376e+03,1.682359e+03
1.672947e+03,1.663445e+03
1.684517e+03,1.657698e+03
1.696088e+03,1.655898e+03
1.707659e+03,1.634951e+03
1.719230e+03,1.613946e+03
1.730801e+03,1.598049e+03
1.742371e+03,1.585293e+03
1.753942e+03,1.573457e+03
1.765513e+03,1.555953e+03
1.777084e+03,1.546302e+03
1.788655e+03,1.520033e+03
1.800225e+03,1.522601e+03
1.811796e+03,1.518470e+03
1.823367e+03,1.488847e+03
1.834938e+03,1.475992e+03
1.846509e+03,1.478404e+03
1.858079e+03,1.455473e+03
1.869650e+03,1.436708e+03
1.881221e+03,1.410255e+03
1.892792e+03,1.417810e+03
1.904363e+03,1.407732e+03
1.915933e+03,1.390129e+03
1.927504e+03,1.355677e+03
1.939075e+03,1.368361e+03
1.950646e+03,1.355372e+03
1.962217e+03,1.333909e+03
1.973787e+03,1.316373e+03
1.985358e+03,1.293583e+03
1.996929e+03,1.298683e+03
2.008500e+03,1.269601e+03
2.020071e+03,1.255521e+03
2.031641e+03,1.237025e+03
2.043212e+03,1.241290e+03
2.054783e+03,1.200928e+03
2.066354e+03,1.207454e+03
2.077925e+03,1.177814e+03
2.089496e+03,1.167455e+03
2.101066e+03,1.161678e+03
2.112637e+03,1.149634e+03
2.124208e+03,1.161191e+03
2.135779e+03,1.124134e+03
2.147350e+03,1.101950e+03
2.158920e+03,1.100508e+03
2.170491e+03,1.095993e+03
2.182062e+03,1.058096e+03
2.193633e+03,1.048679e+03
2.205204e+03,1.045926e+03
2.216774e+03,1.043292e+03
2.228345e+03,1.014431e+03
2.239916e+03,9.919250e+02
2.251487e+03,9.965187e+02
2.263058e+03,9.760665e+02
2.274628e+03,9.657025e+02
2.286199e+03,9.606771e+02
2.297770e+03,9.403599e+02
2.309341e+03,9.202038e+02
2.320912e+03,9.318000e+02
2.332482e+03,8.984619e+02
2.344053e+03,9.088815e+02
2.355624e+03,8.836175e+02
2.367195e+03,8.716620e+02
2.378766e+03,8.635895e+02
2.390336e+03,8.596483e+02
2.401907e+03,8.399064e+02
2.413478e+03,8.219393e+02
2.425049e+03,8.293596e+02
2.436620e+03,8.113113e+02
2.448190e+03,7.999695e+02
2.459761e+03,7.992019e+02
2.471332e+03,7.874628e+02
2.482903e+03,7.772032e+02
2.494474e+03,7.654598e+02
2.506044e+03,7.471808e+02
2.517615e+03,7.422575e+02
2.529186e+03,7.373993e+02
2.540757e+03,7.249349e+02
2.552328e+03,7.196505e+02
2.563898e+03,7.195474e+02
2.575469e+03,7.147421e+02
2.587040e+03,6.908712e+02
2.598611e+03,6.820994e+02
2.610182e+03,6.800419e+02
2.621752e+03,6.866193e+02
2.633323e+03,6.737657e+02
2.644894e+03,6.485350e+02
2.656465e+03,6.624465e+02
2.668036e+03,6.625115e+02
2.679606e+03,6.467017e+02
2.691177e+03,6.190751e+02
2.702748e+03,6.340462e+02
2.714319e+03,6.195471e+02
2.725890e+03,5.996768e+02
2.737460e+03,6.130389e+02
2.749031e+03,5.965387e+02
2.760602e+03,5.934499e+02
2.772173e+03,5.928810e+02
2.783744e+03,5.970760e+02
2.795314e+03,5.778218e+02
2.806885e+03,5.880745e+02
2.818456e+03,5.700097e+02
2.830027e+03,5.744135e+02
2.841598e+03,5.670463e+02
2.853168e+03,5.698839e+02
2.864739e+03,5.576478e+02
2.876310e+03,5.812934e+02
2.887881e+03,5.891202e+02
2.899452e+03,5.637219e+02
2.911022e+03,5.548737e+02
2.922593e+03,5.453023e+02
2.934164e+03,5.333522e+02
2.945735e+03,5.170669e+02
2.957306e+03,5.702897e+02
2.968876e+03,5.054975e+02
2.980447e+03,5.066714e+02
2.992018e+03,5.092305e+02
3.003589e+03,4.995633e+02
3.015160e+03,5.011192e+02
3.026730e+03,4.960854e+02
3.038301e+03,4.940191e+02
3.049872e+03,4.745339e+02
3.061443e+03,4.545785e+02
3.073014e+03,4.987037e+02
3.084584e+03,4.812892e+02
3.096155e+03,4.736167e+02
3.107726e+03,4.932460e+02
3.119297e+03,4.822818e+02
3.130868e+03,5.058750e+02
3.142438e+03,4.843168e+02
3.154009e+03,4.703410e+02
3.165580e+03,4.810295e+02
3.177151e+03,4.925187e+02
3.188722e+03,4.828546e+02
3.200292e+03,5.068343e+02
3.211863e+03,0.000000e+00
3.223434e+03,0.000000e+00
3.235005e+03,0.000000e+00
3.246576e+03,0.000000e+00
3.258146e+03,0.000000e+00
3.269717e+03,0.000000e+00
3.281288e+03,0.000000e+00
3.292859e+03,0.000000e+00
3.304430e+03,0.000000e+00
3.316000e+03,0.000000e+00
3.327571e+03,0.000000e+00
3.339142e+03,0.000000e+00
3.350713e+03,0.000000e+00
3.362284e+03,0.000000e+00
3.373854e+03,0.000000e+00
3.385425e+03,0.000000e+00
3.396996e+03,0.000000e+00
3.408567e+03,0.000000e+00
3.420138e+03,0.000000e+00
3.431708e+03,0.000000e+00
3.443279e+03,0.000000e+00
3.454850e+03,0.000000e+00
3.466421e+03,0.000000e+00
3.477992e+03,0.000000e+00
3.489563e+03,0.000000e+00
3.500169e+03,0.000000e+00

File: black fibre4.CSV
9.931763e+01,0.000000e+00
1.108884e+02,0.000000e+00
1.224592e+02,0.000000e+00
1.340300e+02,0.000000e+00
1.456008e+02,0.000000e+00
1.571716e+02,0.000000e+00
1.687424e+02,0.000000e+00
1.803132e+02,0.000000e+00
1.918840e+02,0.000000e+00
2.034548e+02,3.031823e+03
2.150256e+02,3.037455e+03
2.265964e+02,3.061966e+03
2.381673e+02,3.080954e+03
2.497381e+02,3.111753e+03
2.613088e+02,3.125495e+03
2.728796e+02,3.134709e+03
2.844504e+02,3.144352e+03
2.960212e+02,3.155665e+03
3.075920e+02,3.163738e+03
3.191628e+02,3.182744e+03
3.307336e+02,3.199996e+03
3.423044e+02,3.194137e+03
3.538752e+02,3.215667e+03
3.654461e+02,3.214066e+03
3.770169e+02,3.260931e+03
3.885877e+02,3.230292e+03
4.001585e+02,3.239087e+03
4.117293e+02,3.233777e+03
4.233001e+02,3.242135e+03
4.348709e+02,3.250254e+03
4.464417e+02,3.250933e+03
4.580125e+02,3.249593e+03
4.695833e+02,3.266359e+03
4.811541e+02,3.290178e+03
4.927249e+02,3.277623e+03
5.042957e+02,3.248461e+03
5.158665e+02,3.247106e+03
5.274373e+02,3.253078e+03
5.390081e+02,3.238946e+03
5.505789e+02,3.226386e+03
5.621497e+02,3.232513e+03
5.737205e+02,3.215187e+03
5.852913e+02,3.203805e+03
5.968621e+02,3.200397e+03
6.084329e+02,3.191828e+03
6.200037e+02,3.202645e+03
6.315745e+02,3.170488e+03
6.431453e+02,3.166169e+03
6.547161e+02,3.152118e+03
6.662869e+02,3.151323e+03
6.778577e+02,3.138222e+03
6.894285e+02,3.122219e+03
7.009993e+02,3.114979e+03
7.125701e+02,3.099832e+03
7.241409e+02,3.092082e+03
7.357117e+02,3.081476e+03
7.472825e+02,3.074260e+03
7.588533e+02,3.049130e+03
7.704241e+02,3.036951e+03
7.819949e+02,3.021765e+03
7.935657e+02,3.003555e+03
8.051365e+02,2.992454e+03
8.167073e+02,2.971169e+03
8.282781e+02,2.951362e+03
8.398489e+02,2.957663e+03
8.514197e+02,2.941571e+03
8.629905e+02,2.925809e+03
8.745613e+02,2.916626e+03
8.861321e+02,2.917441e+03
8.977029e+02,2.865143e+03
9.092737e+02,2.857949e+03
9.208445e+02,2.845962e+03
9.324153e+02,2.823543e+03
9.439861e+02,2.793498e+03
9.555569e+02,2.776048e+03
9.671277e+02,2.761032e+03
9.786985e+02,2.760816e+03
9.902693e+02,2.741447e+03
1.001840e+03,2.719875e+03
1.013411e+03,2.708351e+03
1.024982e+03,2.687999e+03
1.036552e+03,2.680931e+03
1.048123e+03,2.668040e+03
1.059694e+03,2.656418e+03
1.071265e+03,2.637310e+03
1.082836e+03,2.641700e+03
1.094406e+03,2.614732e+03
1.105977e+03,2.589906e+03
1.117548e+03,2.636036e+03
1.129119e+03,2.630505e+03
1.140690e+03,2.603867e+03
1.152261e+03,2.614343e+03
1.163831e+03,2.542240e+03
1.175402e+03,2.541553e+03
1.186973e+03,2.533287e+03
1.198544e+03,2.502461e+03
1.210115e+03,2.514238e+03
1.221685e+03,2.458401e+03
1.233256e+03,2.438747e+03
1.244827e+03,2.454880e+03
1.256398e+03,2.423083e+03
1.267969e+03,2.443485e+03
1.279539e+03,2.473965e+03
1.291110e+03,2.412020e+03
1.302681e+03,2.391665e+03
1.314252e+03,2.366227e+03
1.325823e+03,2.353444e+03
1.337393e+03,2.381964e+03
1.348964e+03,2.373627e+03
1.360535e+03,2.338357e+03
1.372106e+03,2.320387e+03
1.383677e+03,2.296493e+03
1.395247e+03,2.275682e+03
1.406818e+03,2.273384e+03
1.418389e+03,2.248164e+03
1.429960e+03,2.231566e+03
1.441531e+03,2.212476e+03
1.453101e+03,2.185629e+03
1.464672e+03,2.174715e+03
1.476243e+03,2.171923e+03
1.487814e+03,2.163887e+03
1.499385e+03,2.145798e+03
1.510955e+03,2.122746e+03
1.522526e+03,2.120623e+03
1.534097e+03,2.097786e+03
1.545668e+03,2.090634e+03
1.557239e+03,2.086116e+03
1.568809e+03,2.118826e+03
1.580380e+03,2.107040e+03
1.591951e+03,2.074133e+03
1.603522e+03,2.021268e+03
1.615093e+03,2.011868e+03
1.626663e+03,1.988622e+03
1.638234e+03,1.972257e+03
1.649805e+03,1.952420e+03
1.661376e+03,1.949505e+03
1.672947e+03,1.926867e+03
1.684517e+03,1.919570e+03
1.696088e+03,1.876657e+03
1.707659e+03,1.896070e+03
1.719230e+03,1.862429e+03
1.730801e+03,1.843488e+03
1.742371e+03,1.836721e+03
1.753942e+03,1.830733e+03
1.765513e+03,1.800255e+03
1.777084e+03,1.771982e+03
1.788655e+03,1.772492e+03
1.800225e+03,1.763967e+03
1.811796e+03,1.729895e+03
1.823367e+03,1.731701e+03
1.834938e+03,1.705110e+03
1.846509e+03,1.708466e+03
1.858079e+03,1.689056e+03
1.869650e+03,1.651645e+03
1.881221e+03,1.638888e+03
1.892792e+03,1.627985e+03
1.904363e+03,1.620068e+03
1.915933e+03,1.585703e+03
1.927504e+03,1.572167e+03
1.939075e+03,1.571786e+03
1.950646e+03,1.546759e+03
1.962217e+03,1.538021e+03
1.973787e+03,1.530376e+03
1.985358e+03,1.492696e+03
1.996929e+03,1.484159e+03
2.008500e+03,1.462751e+03
2.020071e+03,1.456356e+03
2.031641e+03,1.441315e+03
2.043212e+03,1.418545e+03
2.054783e+03,1.401923e+03
2.066354e+03,1.396057e+03
2.077925e+03,1.385601e+03
2.089496e+03,1.364331e+03
2.101066e+03,1.342266e+03
2.112637e+03,1.312509e+03
2.124208e+03,1.322707e+03
2.135779e+03,1.294856e+03
2.147350e+03,1.284433e+03
2.158920e+03,1.265511e+03
2.170491e+03,1.249550e+03
2.182062e+03,1.241246e+03
2.193633e+03,1.234710e+03
2.205204e+03,1.211418e+03
2.216774e+03,1.207373e+03
2.228345e+03,1.187001e+03
2.239916e+03,1.163214e+03
2.251487e+03,1.162640e+03
2.263058e+03,1.133268e+03
2.274628e+03,1.138716e+03
2.286199e+03,1.110066e+03
2.297770e+03,1.105585e+03
2.309341e+03,1.086218e+03
2.320912e+03,1.076601e+03
2.332482e+03,1.070037e+03
2.344053e+03,1.052760e+03
2.355624e+03,1.032695e+03
2.367195e+03,1.041166e+03
2.378766e+03,1.017700e+03
2.390336e+03,1.007509e+03
2.401907e+03,9.867931e+02
2.413478e+03,9.747165e+02
2.425049e+03,9.678262e+02
2.436620e+03,9.572480e+02
2.448190e+03,9.482126e+02
2.459761e+03,9.401814e+02
2.471332e+03,9.326699e+02
2.482903e+03,9.240911e+02
2.494474e+03,9.008002e+02
2.506044e+03,8.900051e+02
2.517615e+03,8.891043e+02
2.529186e+03,8.754360e+02
2.540757e+03,8.655285e+02
2.552328e+03,8.814454e+02
2.563898e+03,8.730505e+02
2.575469e+03,8.463176e+02
2.587040e+03,8.364286e+02
2.598611e+03,8.345544e+02
2.610182e+03,8.099772e+02
2.621752e+03,8.090491e+02
2.633323e+03,7.979041e+02
2.644894e+03,7.772722e+02
2.656465e+03,8.003962e+02
2.668036e+03,7.740153e+02
2.679606e+03,7.699941e+02
2.691177e+03,7.627471e+02
2.702748e+03,7.521668e+02
2.714319e+03,7.451099e+02
2.725890e+03,7.512891e+02
2.737460e+03,7.267416e+02
2.749031e+03,7.099634e+02
2.760602e+03,7.164299e+02
2.772173e+03,7.095278e+02
2.783744e+03,7.203983e+02
2.795314e+03,6.883895e+02
2.806885e+03,7.161787e+02
2.818456e+03,6.932715e+02
2.830027e+03,6.760550e+02
2.841598e+03,6.669177e+02
2.853168e+03,6.654310e+02
2.864739e+03,6.667950e+02
2.876310e+03,6.529561e+02
2.887881e+03,6.693141e+02
2.899452e+03,6.803260e+02
2.911022e+03,6.617349e+02
2.922593e+03,6.510944e+02
2.934164e+03,6.410822e+02
2.945735e+03,6.452763e+02
2.957306e+03,6.772784e+02
2.968876e+03,6.161739e+02
2.980447e+03,6.174894e+02
2.992018e+03,6.104318e+02
3.003589e+03,5.972083e+02
3.015160e+03,6.013278e+02
3.026730e+03,5.889562e+02
3.038301e+03,5.854796e+02
3.049872e+03,5.705155e+02
3.061443e+03,5.901718e+02
3.073014e+03,5.685616e+02
3.084584e+03,5.867012e+02
3.096155e+03,5.543572e+02
3.107726e+03,5.343205e+02
3.119297e+03,6.014502e+02
3.130868e+03,5.924443e+02
3.142438e+03,5.808720e+02
3.154009e+03,5.891284e+02
3.165580e+03,5.788226e+02
3.177151e+03,5.877308e+02
3.188722e+03,5.744032e+02
3.200292e+03,6.031788e+02
3.211863e+03,0.000000e+00
3.223434e+03,0.000000e+00
3.235005e+03,0.000000e+00
3.246576e+03,0.000000e+00
3.258146e+03,0.000000e+00
3.269717e+03,0.000000e+00
3.281288e+03,0.000000e+00
3.292859e+03,0.000000e+00
3.304430e+03,0.000000e+00
3.316000e+03,0.000000e+00
3.327571e+03,0.000000e+00
3.339142e+03,0.000000e+00
3.350713e+03,0.000000e+00
3.362284e+03,0.000000e+00
3.373854e+03,0.000000e+00
3.385425e+03,0.000000e+00
3.396996e+03,0.000000e+00
3.408567e+03,0.000000e+00
3.420138e+03,0.000000e+00
3.431708e+03,0.000000e+00
3.443279e+03,0.000000e+00
3.454850e+03,0.000000e+00
3.466421e+03,0.000000e+00
3.477992e+03,0.000000e+00
3.489563e+03,0.000000e+00
3.500169e+03,0.000000e+00

File: black fibre5.CSV
9.931763e+01,0.000000e+00
1.108884e+02,0.000000e+00
1.224592e+02,0.000000e+00
1.340300e+02,0.000000e+00
1.456008e+02,0.000000e+00
1.571716e+02,0.000000e+00
1.687424e+02,0.000000e+00
1.803132e+02,0.000000e+00
1.918840e+02,0.000000e+00
2.034548e+02,1.052034e+04
2.150256e+02,1.057994e+04
2.265964e+02,1.068749e+04
2.381673e+02,1.083688e+04
2.497381e+02,1.092293e+04
2.613088e+02,1.102010e+04
2.728796e+02,1.114520e+04
2.844504e+02,1.128402e+04
2.960212e+02,1.139113e+04
3.075920e+02,1.148884e+04
3.191628e+02,1.160888e+04
3.307336e+02,1.175929e+04
3.423044e+02,1.189110e+04
3.538752e+02,1.203903e+04
3.654461e+02,1.215143e+04
3.770169e+02,1.231209e+04
3.885877e+02,1.246715e+04
4.001585e+02,1.259571e+04
4.117293e+02,1.274472e+04
4.233001e+02,1.288676e+04
4.348709e+02,1.304558e+04
4.464417e+02,1.321787e+04
4.580125e+02,1.333318e+04
4.695833e+02,1.347626e+04
4.811541e+02,1.360236e+04
4.927249e+02,1.374528e+04
5.042957e+02,1.387435e+04
5.158665e+02,1.399864e+04
5.274373e+02,1.410163e+04
5.390081e+02,1.417050e+04
5.505789e+02,1.428684e+04
5.621497e+02,1.439771e+04
5.737205e+02,1.446703e+04
5.852913e+02,1.457644e+04
5.968621e+02,1.471511e+04
6.084329e+02,1.480400e+04
6.200037e+02,1.484453e+04
6.315745e+02,1.490820e+04
6.431453e+02,1.500872e+04
6.547161e+02,1.510748e+04
6.662869e+02,1.514652e+04
6.778577e+02,1.514802e+04
6.894285e+02,1.519513e+04
7.009993e+02,1.527333e+04
7.125701e+02,1.527581e+04
7.241409e+02,1.527056e+04
7.357117e+02,1.526930e+04
7.472825e+02,1.529960e+04
7.588533e+02,1.525382e+04
7.704241e+02,1.521191e+04
7.819949e+02,1.519989e+04
7.935657e+02,1.517511e+04
8.051365e+02,1.511129e+04
8.167073e+02,1.508447e+04
8.282781e+02,1.504107e+04
8.398489e+02,1.497962e+04
8.514197e+02,1.485256e+04
8.629905e+02,1.478422e+04
8.745613e+02,1.470286e+04
8.861321e+02,1.467148e+04
8.977029e+02,1.455250e+04
9.092737e+02,1.445627e+04
9.208445e+02,1.435686e+04
9.324153e+02,1.430501e+04
9.439861e+02,1.419716e+04
9.555569e+02,1.405368e+04
9.671277e+02,1.394430e+04
9.786985e+02,1.383164e+04
9.902693e+02,1.367584e+04
1.001840e+03,1.353603e+04
1.013411e+03,1.346525e+04
1.024982e+03,1.338008e+04
1.036552e+03,1.323509e+04
1.048123e+03,1.311863e+04
1.059694e+03,1.305507e+04
1.071265e+03,1.300558e+04
1.082836e+03,1.290236e+04
1.094406e+03,1.274735e+04
1.105977e+03,1.267960e+04
1.117548e+03,1.262586e+04
1.129119e+03,1.251258e+04
1.140690e+03,1.242165e+04
1.152261e+03,1.239153e+04
1.163831e+03,1.232244e+04
1.175402e+03,1.221976e+04
1.186973e+03,1.215668e+04
1.198544e+03,1.215996e+04
1.210115e+03,1.211086e+04
1.221685e+03,1.206958e+04
1.233256e+03,1.204761e+04
1.244827e+03,1.207964e+04
1.256398e+03,1.208948e+04
1.267969e+03,1.206765e+04
1.279539e+03,1.209133e+04
1.291110e+03,1.208849e+04
1.302681e+03,1.204767e+04
1.314252e+03,1.196414e+04
1.325823e+03,1.188280e+04
1.337393e+03,1.182965e+04
1.348964e+03,1.172847e+04
1.360535e+03,1.162448e+04
1.372106e+03,1.147858e+04
1.383677e+03,1.140753e+04
1.395247e+03,1.127284e+04
1.406818e+03,1.117758e+04
1.418389e+03,1.112143e+04
1.429960e+03,1.100262e+04
1.441531e+03,1.094720e+04
1.453101e+03,1.092181e+04
1.464672e+03,1.077851e+04
1.476243e+03,1.068655e+04
1.487814e+03,1.061789e+04
1.499385e+03,1.044510e+04
1.510955e+03,1.046009e+04
1.522526e+03,1.034634e+04
1.534097e+03,1.020346e+04
1.545668e+03,1.015809e+04
1.557239e+03,1.015858e+04
1.568809e+03,1.060544e+04
1.580380e+03,1.029836e+04
1.591951e+03,9.886156e+03
1.603522e+03,9.820681e+03
1.615093e+03,9.671526e+03
1.626663e+03,9.662475e+03
1.638234e+03,9.520406e+03
1.649805e+03,9.382362e+03
1.661376e+03,9.310456e+03
1.672947e+03,9.282572e+03
1.684517e+03,9.186006e+03
1.696088e+03,9.048270e+03
1.707659e+03,8.995341e+03
1.719230e+03,8.924202e+03
1.730801e+03,8.837004e+03
1.742371e+03,8.779681e+03
1.753942e+03,8.685958e+03
1.765513e+03,8.610792e+03
1.777084e+03,8.528762e+03
1.788655e+03,8.485962e+03
1.800225e+03,8.414890e+03
1.811796e+03,8.337130e+03
1.823367e+03,8.274988e+03
1.834938e+03,8.180307e+03
1.846509e+03,8.153124e+03
1.858079e+03,8.051455e+03
1.869650e+03,8.005894e+03
1.881221e+03,7.860198e+03
1.892792e+03,7.841001e+03
1.904363e+03,7.769184e+03
1.915933e+03,7.640881e+03
1.927504e+03,7.583087e+03
1.939075e+03,7.543822e+03
1.950646e+03,7.416165e+03
1.962217e+03,7.364709e+03
1.973787e+03,7.350281e+03
1.985358e+03,7.213479e+03
1.996929e+03,7.151292e+03
2.008500e+03,7.074365e+03
2.020071e+03,7.027515e+03
2.031641e+03,6.934979e+03
2.043212e+03,6.815643e+03
2.054783e+03,6.754914e+03
2.066354e+03,6.727547e+03
2.077925e+03,6.627195e+03
2.089496e+03,6.591026e+03
2.101066e+03,6.466678e+03
2.112637e+03,6.413984e+03
2.124208e+03,6.347216e+03
2.135779e+03,6.253985e+03
2.147350e+03,6.157464e+03
2.158920e+03,6.121341e+03
2.170491e+03,6.069803e+03
2.182062e+03,5.946497e+03
2.193633e+03,5.872928e+03
2.205204e+03,5.856550e+03
2.216774e+03,5.805334e+03
2.228345e+03,5.648701e+03
2.239916e+03,5.615235e+03
2.251487e+03,5.566878e+03
2.263058e+03,5.428885e+03
2.274628e+03,5.362635e+03
2.286199e+03,5.293685e+03
2.297770e+03,5.270471e+03
2.309341e+03,5.167650e+03
2.320912e+03,5.126614e+03
2.332482e+03,5.040790e+03
2.344053e+03,5.011654e+03
2.355624e+03,4.930337e+03
2.367195e+03,4.843958e+03
2.378766e+03,4.793617e+03
2.390336e+03,4.722878e+03
2.401907e+03,4.657141e+03
2.413478e+03,4.587073e+03
2.425049e+03,4.541021e+03
2.436620e+03,4.524459e+03
2.448190e+03,4.430774e+03
2.459761e+03,4.387043e+03
2.471332e+03,4.307225e+03
2.482903e+03,4.279973e+03
2.494474e+03,4.205484e+03
2.506044e+03,4.157229e+03
2.517615e+03,4.100052e+03
2.529186e+03,4.046010e+03
2.540757e+03,4.017840e+03
2.552328e+03,3.939664e+03
2.563898e+03,3.929033e+03
2.575469e+03,3.877706e+03
2.587040e+03,3.787195e+03
2.598611e+03,3.765242e+03
2.610182e+03,3.705046e+03
2.621752e+03,3.666912e+03
2.633323e+03,3.617183e+03
2.644894e+03,3.647123e+03
2.656465e+03,3.567787e+03
2.668036e+03,3.488312e+03
2.679606e+03,3.469417e+03
2.691177e+03,3.429142e+03
2.702748e+03,3.390023e+03
2.714319e+03,3.358924e+03
2.725890e+03,3.319714e+03
2.737460e+03,3.275888e+03
2.749031e+03,3.258569e+03
2.760602e+03,3.197675e+03
2.772173e+03,3.151419e+03
2.783744e+03,3.112950e+03
2.795314e+03,3.077053e+03
2.806885e+03,3.062748e+03
2.818456e+03,3.027289e+03
2.830027e+03,2.973309e+03
2.841598e+03,2.994796e+03
2.853168e+03,2.926192e+03
2.864739e+03,2.898536e+03
2.876310e+03,2.854837e+03
2.887881e+03,2.849949e+03
2.899452e+03,2.893723e+03
2.911022e+03,2.811301e+03
2.922593e+03,2.803569e+03
2.934164e+03,2.745824e+03
2.945735e+03,2.755892e+03
2.957306e+03,2.728089e+03
2.968876e+03,2.700856e+03
2.980447e+03,2.649902e+03
2.992018e+03,2.621128e+03
3.003589e+03,2.625922e+03
3.015160e+03,2.591262e+03
3.026730e+03,2.594438e+03
3.038301e+03,2.571443e+03
3.049872e+03,2.513582e+03
3.061443e+03,2.521637e+03
3.073014e+03,2.529429e+03
3.084584e+03,2.526695e+03
3.096155e+03,2.498972e+03
3.107726e+03,2.454547e+03
3.119297e+03,2.526802e+03
3.130868e+03,2.547217e+03
3.142438e+03,2.480409e+03
3.154009e+03,2.432181e+03
3.165580e+03,2.489683e+03
3.177151e+03,2.492179e+03
3.188722e+03,2.474312e+03
3.200292e+03,2.533102e+03
3.211863e+03,0.000000e+00
3.223434e+03,0.000000e+00
3.235005e+03,0.000000e+00
3.246576e+03,0.000000e+00
3.258146e+03,0.000000e+00
3.269717e+03,0.000000e+00
3.281288e+03,0.000000e+00
3.292859e+03,0.000000e+00
3.304430e+03,0.000000e+00
3.316000e+03,0.000000e+00
3.327571e+03,0.000000e+00
3.339142e+03,0.000000e+00
3.350713e+03,0.000000e+00
3.362284e+03,0.000000e+00
3.373854e+03,0.000000e+00
3.385425e+03,0.000000e+00
3.396996e+03,0.000000e+00
3.408567e+03,0.000000e+00
3.420138e+03,0.000000e+00
3.431708e+03,0.000000e+00
3.443279e+03,0.000000e+00
3.454850e+03,0.000000e+00
3.466421e+03,0.000000e+00
3.477992e+03,0.000000e+00
3.489563e+03,0.000000e+00
3.500169e+03,0.000000e+00