Folder: Taff_Bargoed_microplastics_data/RAMAN_data/23052023_r3 (part 5)

File: blue fibre11.CSV
9.931763e+01,0.000000e+00
1.108884e+02,0.000000e+00
1.224592e+02,0.000000e+00
1.340300e+02,0.000000e+00
1.456008e+02,0.000000e+00
1.571716e+02,0.000000e+00
1.687424e+02,0.000000e+00
1.803132e+02,0.000000e+00
1.918840e+02,0.000000e+00
2.034548e+02,7.050767e+03
2.150256e+02,7.135764e+03
2.265964e+02,7.168354e+03
2.381673e+02,7.291477e+03
2.497381e+02,7.347524e+03
2.613088e+02,7.413656e+03
2.728796e+02,7.517777e+03
2.844504e+02,7.557998e+03
2.960212e+02,7.578683e+03
3.075920e+02,7.613436e+03
3.191628e+02,7.655274e+03
3.307336e+02,7.698937e+03
3.423044e+02,7.731308e+03
3.538752e+02,7.748974e+03
3.654461e+02,7.775075e+03
3.770169e+02,7.839307e+03
3.885877e+02,7.824926e+03
4.001585e+02,7.829010e+03
4.117293e+02,7.861696e+03
4.233001e+02,7.894740e+03
4.348709e+02,7.880814e+03
4.464417e+02,7.886453e+03
4.580125e+02,7.901791e+03
4.695833e+02,7.912976e+03
4.811541e+02,7.876296e+03
4.927249e+02,7.903442e+03
5.042957e+02,7.888147e+03
5.158665e+02,7.918659e+03
5.274373e+02,7.902496e+03
5.390081e+02,7.914799e+03
5.505789e+02,7.947483e+03
5.621497e+02,7.927285e+03
5.737205e+02,7.846585e+03
5.852913e+02,7.806007e+03
5.968621e+02,7.848205e+03
6.084329e+02,7.887580e+03
6.200037e+02,7.753973e+03
6.315745e+02,7.766586e+03
6.431453e+02,7.717370e+03
6.547161e+02,7.672939e+03
6.662869e+02,7.662743e+03
6.778577e+02,7.617219e+03
6.894285e+02,7.592725e+03
7.009993e+02,7.554116e+03
7.125701e+02,7.513877e+03
7.241409e+02,7.442403e+03
7.357117e+02,7.426666e+03
7.472825e+02,7.376046e+03
7.588533e+02,7.348799e+03
7.704241e+02,7.302367e+03
7.819949e+02,7.285474e+03
7.935657e+02,7.233041e+03
8.051365e+02,7.178858e+03
8.167073e+02,7.105025e+03
8.282781e+02,7.073665e+03
8.398489e+02,7.044290e+03
8.514197e+02,6.989217e+03
8.629905e+02,6.955214e+03
8.745613e+02,6.888808e+03
8.861321e+02,6.865700e+03
8.977029e+02,6.779254e+03
9.092737e+02,6.742745e+03
9.208445e+02,6.679073e+03
9.324153e+02,6.631854e+03
9.439861e+02,6.576680e+03
9.555569e+02,6.493982e+03
9.671277e+02,6.443068e+03
9.786985e+02,6.396551e+03
9.902693e+02,6.336217e+03
1.001840e+03,6.285270e+03
1.013411e+03,6.255498e+03
1.024982e+03,6.210487e+03
1.036552e+03,6.146876e+03
1.048123e+03,6.126462e+03
1.059694e+03,6.029690e+03
1.071265e+03,6.052649e+03
1.082836e+03,6.003808e+03
1.094406e+03,5.918083e+03
1.105977e+03,5.873102e+03
1.117548e+03,5.848241e+03
1.129119e+03,5.758123e+03
1.140690e+03,5.712073e+03
1.152261e+03,5.690455e+03
1.163831e+03,5.625284e+03
1.175402e+03,5.564875e+03
1.186973e+03,5.503557e+03
1.198544e+03,5.497835e+03
1.210115e+03,5.434862e+03
1.221685e+03,5.378030e+03
1.233256e+03,5.325372e+03
1.244827e+03,5.301290e+03
1.256398e+03,5.236516e+03
1.267969e+03,5.187727e+03
1.279539e+03,5.166801e+03
1.291110e+03,5.119204e+03
1.302681e+03,5.081809e+03
1.314252e+03,5.038814e+03
1.325823e+03,4.979554e+03
1.337393e+03,4.978349e+03
1.348964e+03,4.925664e+03
1.360535e+03,4.872709e+03
1.372106e+03,4.837154e+03
1.383677e+03,4.797933e+03
1.395247e+03,4.751062e+03
1.406818e+03,4.688737e+03
1.418389e+03,4.673360e+03
1.429960e+03,4.645343e+03
1.441531e+03,4.614303e+03
1.453101e+03,4.582946e+03
1.464672e+03,4.530454e+03
1.476243e+03,4.519504e+03
1.487814e+03,4.456280e+03
1.499385e+03,4.420850e+03
1.510955e+03,4.398806e+03
1.522526e+03,4.354342e+03
1.534097e+03,4.320902e+03
1.545668e+03,4.284971e+03
1.557239e+03,4.285622e+03
1.568809e+03,4.360389e+03
1.580380e+03,4.260647e+03
1.591951e+03,4.184179e+03
1.603522e+03,4.115398e+03
1.615093e+03,4.084629e+03
1.626663e+03,4.061595e+03
1.638234e+03,4.018703e+03
1.649805e+03,3.968099e+03
1.661376e+03,3.964001e+03
1.672947e+03,3.911349e+03
1.684517e+03,3.874824e+03
1.696088e+03,3.851931e+03
1.707659e+03,3.832185e+03
1.719230e+03,3.769775e+03
1.730801e+03,3.747164e+03
1.742371e+03,3.707762e+03
1.753942e+03,3.671036e+03
1.765513e+03,3.647994e+03
1.777084e+03,3.618106e+03
1.788655e+03,3.567574e+03
1.800225e+03,3.547056e+03
1.811796e+03,3.511563e+03
1.823367e+03,3.462939e+03
1.834938e+03,3.454773e+03
1.846509e+03,3.409124e+03
1.858079e+03,3.393426e+03
1.869650e+03,3.351668e+03
1.881221e+03,3.327837e+03
1.892792e+03,3.279114e+03
1.904363e+03,3.244801e+03
1.915933e+03,3.216110e+03
1.927504e+03,3.180731e+03
1.939075e+03,3.131530e+03
1.950646e+03,3.123834e+03
1.962217e+03,3.082174e+03
1.973787e+03,3.038108e+03
1.985358e+03,3.026952e+03
1.996929e+03,2.990980e+03
2.008500e+03,2.937111e+03
2.020071e+03,2.902903e+03
2.031641e+03,2.891768e+03
2.043212e+03,2.847115e+03
2.054783e+03,2.801318e+03
2.066354e+03,2.792691e+03
2.077925e+03,2.734872e+03
2.089496e+03,2.751626e+03
2.101066e+03,2.684073e+03
2.112637e+03,2.651635e+03
2.124208e+03,2.617220e+03
2.135779e+03,2.608405e+03
2.147350e+03,2.568537e+03
2.158920e+03,2.546737e+03
2.170491e+03,2.503497e+03
2.182062e+03,2.448945e+03
2.193633e+03,2.435681e+03
2.205204e+03,2.437386e+03
2.216774e+03,2.370128e+03
2.228345e+03,2.344335e+03
2.239916e+03,2.303025e+03
2.251487e+03,2.295576e+03
2.263058e+03,2.262221e+03
2.274628e+03,2.228094e+03
2.286199e+03,2.170453e+03
2.297770e+03,2.178085e+03
2.309341e+03,2.126205e+03
2.320912e+03,2.114282e+03
2.332482e+03,2.072264e+03
2.344053e+03,2.079974e+03
2.355624e+03,2.020695e+03
2.367195e+03,1.992919e+03
2.378766e+03,1.966485e+03
2.390336e+03,1.952010e+03
2.401907e+03,1.914961e+03
2.413478e+03,1.894557e+03
2.425049e+03,1.886361e+03
2.436620e+03,1.869717e+03
2.448190e+03,1.822313e+03
2.459761e+03,1.808708e+03
2.471332e+03,1.772102e+03
2.482903e+03,1.773434e+03
2.494474e+03,1.753388e+03
2.506044e+03,1.723602e+03
2.517615e+03,1.692763e+03
2.529186e+03,1.682640e+03
2.540757e+03,1.657669e+03
2.552328e+03,1.632995e+03
2.563898e+03,1.646977e+03
2.575469e+03,1.616486e+03
2.587040e+03,1.571441e+03
2.598611e+03,1.552655e+03
2.610182e+03,1.560083e+03
2.621752e+03,1.506834e+03
2.633323e+03,1.498225e+03
2.644894e+03,1.506195e+03
2.656465e+03,1.479758e+03
2.668036e+03,1.448632e+03
2.679606e+03,1.462125e+03
2.691177e+03,1.426422e+03
2.702748e+03,1.401206e+03
2.714319e+03,1.392836e+03
2.725890e+03,1.395036e+03
2.737460e+03,1.378758e+03
2.749031e+03,1.357396e+03
2.760602e+03,1.326773e+03
2.772173e+03,1.335064e+03
2.783744e+03,1.314409e+03
2.795314e+03,1.308893e+03
2.806885e+03,1.284420e+03
2.818456e+03,1.270682e+03
2.830027e+03,1.266375e+03
2.841598e+03,1.253334e+03
2.853168e+03,1.233961e+03
2.864739e+03,1.230015e+03
2.876310e+03,1.241509e+03
2.887881e+03,1.249383e+03
2.899452e+03,1.253738e+03
2.911022e+03,1.229308e+03
2.922593e+03,1.199506e+03
2.934164e+03,1.168292e+03
2.945735e+03,1.165434e+03
2.957306e+03,1.223286e+03
2.968876e+03,1.159474e+03
2.980447e+03,1.142134e+03
2.992018e+03,1.098816e+03
3.003589e+03,1.120646e+03
3.015160e+03,1.110686e+03
3.026730e+03,1.131453e+03
3.038301e+03,1.114268e+03
3.049872e+03,1.064030e+03
3.061443e+03,1.099121e+03
3.073014e+03,1.097547e+03
3.084584e+03,1.071863e+03
3.096155e+03,1.069768e+03
3.107726e+03,1.046892e+03
3.119297e+03,1.069355e+03
3.130868e+03,1.079150e+03
3.142438e+03,1.083168e+03
3.154009e+03,1.048887e+03
3.165580e+03,1.055681e+03
3.177151e+03,1.075000e+03
3.188722e+03,1.071976e+03
3.200292e+03,1.123819e+03
3.211863e+03,0.000000e+00
3.223434e+03,0.000000e+00
3.235005e+03,0.000000e+00
3.246576e+03,0.000000e+00
3.258146e+03,0.000000e+00
3.269717e+03,0.000000e+00
3.281288e+03,0.000000e+00
3.292859e+03,0.000000e+00
3.304430e+03,0.000000e+00
3.316000e+03,0.000000e+00
3.327571e+03,0.000000e+00
3.339142e+03,0.000000e+00
3.350713e+03,0.000000e+00
3.362284e+03,0.000000e+00
3.373854e+03,0.000000e+00
3.385425e+03,0.000000e+00
3.396996e+03,0.000000e+00
3.408567e+03,0.000000e+00
3.420138e+03,0.000000e+00
3.431708e+03,0.000000e+00
3.443279e+03,0.000000e+00
3.454850e+03,0.000000e+00
3.466421e+03,0.000000e+00
3.477992e+03,0.000000e+00
3.489563e+03,0.000000e+00
3.500169e+03,0.000000e+00

File: blue fibre12.CSV
9.931763e+01,0.000000e+00
1.108884e+02,0.000000e+00
1.224592e+02,0.000000e+00
1.340300e+02,0.000000e+00
1.456008e+02,0.000000e+00
1.571716e+02,0.000000e+00
1.687424e+02,0.000000e+00
1.803132e+02,0.000000e+00
1.918840e+02,0.000000e+00
2.034548e+02,1.028298e+04
2.150256e+02,1.033038e+04
2.265964e+02,1.038093e+04
2.381673e+02,1.050604e+04
2.497381e+02,1.054383e+04
2.613088e+02,1.061820e+04
2.728796e+02,1.070296e+04
2.844504e+02,1.079211e+04
2.960212e+02,1.083058e+04
3.075920e+02,1.086665e+04
3.191628e+02,1.090906e+04
3.307336e+02,1.100403e+04
3.423044e+02,1.105207e+04
3.538752e+02,1.110825e+04
3.654461e+02,1.114710e+04
3.770169e+02,1.115083e+04
3.885877e+02,1.117937e+04
4.001585e+02,1.115889e+04
4.117293e+02,1.114972e+04
4.233001e+02,1.113660e+04
4.348709e+02,1.114887e+04
4.464417e+02,1.114046e+04
4.580125e+02,1.113127e+04
4.695833e+02,1.114896e+04
4.811541e+02,1.112411e+04
4.927249e+02,1.110469e+04
5.042957e+02,1.109271e+04
5.158665e+02,1.114153e+04
5.274373e+02,1.108509e+04
5.390081e+02,1.106029e+04
5.505789e+02,1.105329e+04
5.621497e+02,1.102608e+04
5.737205e+02,1.095977e+04
5.852913e+02,1.094931e+04
5.968621e+02,1.095767e+04
6.084329e+02,1.097103e+04
6.200037e+02,1.086043e+04
6.315745e+02,1.084634e+04
6.431453e+02,1.078055e+04
6.547161e+02,1.079260e+04
6.662869e+02,1.073318e+04
6.778577e+02,1.064381e+04
6.894285e+02,1.062455e+04
7.009993e+02,1.062535e+04
7.125701e+02,1.055687e+04
7.241409e+02,1.054249e+04
7.357117e+02,1.044409e+04
7.472825e+02,1.040279e+04
7.588533e+02,1.041043e+04
7.704241e+02,1.030597e+04
7.819949e+02,1.026497e+04
7.935657e+02,1.026847e+04
8.051365e+02,1.020012e+04
8.167073e+02,1.014980e+04
8.282781e+02,1.009818e+04
8.398489e+02,1.006089e+04
8.514197e+02,1.001021e+04
8.629905e+02,9.945339e+03
8.745613e+02,9.878308e+03
8.861321e+02,9.874279e+03
8.977029e+02,9.811497e+03
9.092737e+02,9.729030e+03
9.208445e+02,9.642816e+03
9.324153e+02,9.607875e+03
9.439861e+02,9.534584e+03
9.555569e+02,9.467390e+03
9.671277e+02,9.438705e+03
9.786985e+02,9.384860e+03
9.902693e+02,9.303197e+03
1.001840e+03,9.251413e+03
1.013411e+03,9.237325e+03
1.024982e+03,9.175824e+03
1.036552e+03,9.129440e+03
1.048123e+03,9.082375e+03
1.059694e+03,9.011594e+03
1.071265e+03,9.013559e+03
1.082836e+03,8.951198e+03
1.094406e+03,8.887506e+03
1.105977e+03,8.834902e+03
1.117548e+03,8.800769e+03
1.129119e+03,8.713331e+03
1.140690e+03,8.699036e+03
1.152261e+03,8.645556e+03
1.163831e+03,8.567400e+03
1.175402e+03,8.524865e+03
1.186973e+03,8.459715e+03
1.198544e+03,8.441593e+03
1.210115e+03,8.382491e+03
1.221685e+03,8.345212e+03
1.233256e+03,8.228644e+03
1.244827e+03,8.234794e+03
1.256398e+03,8.184381e+03
1.267969e+03,8.114322e+03
1.279539e+03,8.063877e+03
1.291110e+03,8.056981e+03
1.302681e+03,8.018857e+03
1.314252e+03,7.943360e+03
1.325823e+03,7.897493e+03
1.337393e+03,7.884159e+03
1.348964e+03,7.825914e+03
1.360535e+03,7.736906e+03
1.372106e+03,7.715170e+03
1.383677e+03,7.675182e+03
1.395247e+03,7.587012e+03
1.406818e+03,7.529334e+03
1.418389e+03,7.549179e+03
1.429960e+03,7.476932e+03
1.441531e+03,7.433260e+03
1.453101e+03,7.389170e+03
1.464672e+03,7.334900e+03
1.476243e+03,7.283298e+03
1.487814e+03,7.214326e+03
1.499385e+03,7.171462e+03
1.510955e+03,7.163920e+03
1.522526e+03,7.109827e+03
1.534097e+03,7.039479e+03
1.545668e+03,7.033465e+03
1.557239e+03,6.972857e+03
1.568809e+03,7.033967e+03
1.580380e+03,6.972578e+03
1.591951e+03,6.875843e+03
1.603522e+03,6.823758e+03
1.615093e+03,6.757694e+03
1.626663e+03,6.694530e+03
1.638234e+03,6.635886e+03
1.649805e+03,6.545948e+03
1.661376e+03,6.523291e+03
1.672947e+03,6.504924e+03
1.684517e+03,6.419069e+03
1.696088e+03,6.377136e+03
1.707659e+03,6.343463e+03
1.719230e+03,6.277199e+03
1.730801e+03,6.196583e+03
1.742371e+03,6.194910e+03
1.753942e+03,6.160414e+03
1.765513e+03,6.087428e+03
1.777084e+03,6.047614e+03
1.788655e+03,6.001106e+03
1.800225e+03,5.955515e+03
1.811796e+03,5.912625e+03
1.823367e+03,5.858969e+03
1.834938e+03,5.824623e+03
1.846509e+03,5.786017e+03
1.858079e+03,5.722262e+03
1.869650e+03,5.662970e+03
1.881221e+03,5.594519e+03
1.892792e+03,5.569924e+03
1.904363e+03,5.514734e+03
1.915933e+03,5.460224e+03
1.927504e+03,5.398962e+03
1.939075e+03,5.331511e+03
1.950646e+03,5.310802e+03
1.962217e+03,5.288313e+03
1.973787e+03,5.234205e+03
1.985358e+03,5.177112e+03
1.996929e+03,5.122883e+03
2.008500e+03,5.067278e+03
2.020071e+03,5.008487e+03
2.031641e+03,4.970272e+03
2.043212e+03,4.921975e+03
2.054783e+03,4.872642e+03
2.066354e+03,4.855686e+03
2.077925e+03,4.760345e+03
2.089496e+03,4.708698e+03
2.101066e+03,4.689995e+03
2.112637e+03,4.616375e+03
2.124208e+03,4.612221e+03
2.135779e+03,4.551433e+03
2.147350e+03,4.448534e+03
2.158920e+03,4.400821e+03
2.170491e+03,4.397017e+03
2.182062e+03,4.337338e+03
2.193633e+03,4.289526e+03
2.205204e+03,4.262106e+03
2.216774e+03,4.211485e+03
2.228345e+03,4.129750e+03
2.239916e+03,4.080450e+03
2.251487e+03,4.034741e+03
2.263058e+03,3.987950e+03
2.274628e+03,3.969233e+03
2.286199e+03,3.872828e+03
2.297770e+03,3.885331e+03
2.309341e+03,3.824037e+03
2.320912e+03,3.763542e+03
2.332482e+03,3.714369e+03
2.344053e+03,3.686374e+03
2.355624e+03,3.631759e+03
2.367195e+03,3.607476e+03
2.378766e+03,3.558023e+03
2.390336e+03,3.530792e+03
2.401907e+03,3.490082e+03
2.413478e+03,3.459293e+03
2.425049e+03,3.430398e+03
2.436620e+03,3.368558e+03
2.448190e+03,3.339915e+03
2.459761e+03,3.271819e+03
2.471332e+03,3.269507e+03
2.482903e+03,3.191777e+03
2.494474e+03,3.197255e+03
2.506044e+03,3.174359e+03
2.517615e+03,3.110449e+03
2.529186e+03,3.111091e+03
2.540757e+03,3.039815e+03
2.552328e+03,3.020673e+03
2.563898e+03,2.969730e+03
2.575469e+03,2.985645e+03
2.587040e+03,2.947375e+03
2.598611e+03,2.894308e+03
2.610182e+03,2.900409e+03
2.621752e+03,2.877960e+03
2.633323e+03,2.801680e+03
2.644894e+03,2.794662e+03
2.656465e+03,2.807481e+03
2.668036e+03,2.738659e+03
2.679606e+03,2.736953e+03
2.691177e+03,2.680685e+03
2.702748e+03,2.673160e+03
2.714319e+03,2.631113e+03
2.725890e+03,2.621949e+03
2.737460e+03,2.607665e+03
2.749031e+03,2.542249e+03
2.760602e+03,2.536520e+03
2.772173e+03,2.537853e+03
2.783744e+03,2.509908e+03
2.795314e+03,2.485311e+03
2.806885e+03,2.454353e+03
2.818456e+03,2.426177e+03
2.830027e+03,2.414239e+03
2.841598e+03,2.420289e+03
2.853168e+03,2.388025e+03
2.864739e+03,2.378813e+03
2.876310e+03,2.368185e+03
2.887881e+03,2.329039e+03
2.899452e+03,2.341812e+03
2.911022e+03,2.290286e+03
2.922593e+03,2.296431e+03
2.934164e+03,2.285978e+03
2.945735e+03,2.283548e+03
2.957306e+03,2.302124e+03
2.968876e+03,2.209547e+03
2.980447e+03,2.199297e+03
2.992018e+03,2.199635e+03
3.003589e+03,2.167226e+03
3.015160e+03,2.155605e+03
3.026730e+03,2.147584e+03
3.038301e+03,2.163421e+03
3.049872e+03,2.147140e+03
3.061443e+03,2.134913e+03
3.073014e+03,2.138235e+03
3.084584e+03,2.063785e+03
3.096155e+03,2.061540e+03
3.107726e+03,2.030982e+03
3.119297e+03,2.095160e+03
3.130868e+03,2.032548e+03
3.142438e+03,2.081588e+03
3.154009e+03,1.996541e+03
3.165580e+03,1.980353e+03
3.177151e+03,2.047891e+03
3.188722e+03,2.077298e+03
3.200292e+03,2.004212e+03
3.211863e+03,0.000000e+00
3.223434e+03,0.000000e+00
3.235005e+03,0.000000e+00
3.246576e+03,0.000000e+00
3.258146e+03,0.000000e+00
3.269717e+03,0.000000e+00
3.281288e+03,0.000000e+00
3.292859e+03,0.000000e+00
3.304430e+03,0.000000e+00
3.316000e+03,0.000000e+00
3.327571e+03,0.000000e+00
3.339142e+03,0.000000e+00
3.350713e+03,0.000000e+00
3.362284e+03,0.000000e+00
3.373854e+03,0.000000e+00
3.385425e+03,0.000000e+00
3.396996e+03,0.000000e+00
3.408567e+03,0.000000e+00
3.420138e+03,0.000000e+00
3.431708e+03,0.000000e+00
3.443279e+03,0.000000e+00
3.454850e+03,0.000000e+00
3.466421e+03,0.000000e+00
3.477992e+03,0.000000e+00
3.489563e+03,0.000000e+00
3.500169e+03,0.000000e+00

File: blue fibre13.CSV
9.931763e+01,0.000000e+00
1.108884e+02,0.000000e+00
1.224592e+02,0.000000e+00
1.340300e+02,0.000000e+00
1.456008e+02,0.000000e+00
1.571716e+02,0.000000e+00
1.687424e+02,0.000000e+00
1.803132e+02,0.000000e+00
1.918840e+02,0.000000e+00
2.034548e+02,4.613629e+03
2.150256e+02,4.664480e+03
2.265964e+02,4.721295e+03
2.381673e+02,4.798757e+03
2.497381e+02,4.879232e+03
2.613088e+02,4.935286e+03
2.728796e+02,5.041706e+03
2.844504e+02,5.088876e+03
2.960212e+02,5.106742e+03
3.075920e+02,5.124470e+03
3.191628e+02,5.167320e+03
3.307336e+02,5.216835e+03
3.423044e+02,5.241703e+03
3.538752e+02,5.286740e+03
3.654461e+02,5.331288e+03
3.770169e+02,5.365514e+03
3.885877e+02,5.386834e+03
4.001585e+02,5.397111e+03
4.117293e+02,5.432290e+03
4.233001e+02,5.452926e+03
4.348709e+02,5.485942e+03
4.464417e+02,5.492549e+03
4.580125e+02,5.514170e+03
4.695833e+02,5.517345e+03
4.811541e+02,5.539895e+03
4.927249e+02,5.531474e+03
5.042957e+02,5.548706e+03
5.158665e+02,5.601438e+03
5.274373e+02,5.578766e+03
5.390081e+02,5.614644e+03
5.505789e+02,5.634949e+03
5.621497e+02,5.654356e+03
5.737205e+02,5.579574e+03
5.852913e+02,5.580995e+03
5.968621e+02,5.600617e+03
6.084329e+02,5.634410e+03
6.200037e+02,5.559278e+03
6.315745e+02,5.528952e+03
6.431453e+02,5.526232e+03
6.547161e+02,5.475213e+03
6.662869e+02,5.465755e+03
6.778577e+02,5.438800e+03
6.894285e+02,5.406686e+03
7.009993e+02,5.401349e+03
7.125701e+02,5.371772e+03
7.241409e+02,5.332463e+03
7.357117e+02,5.313106e+03
7.472825e+02,5.305622e+03
7.588533e+02,5.256063e+03
7.704241e+02,5.225895e+03
7.819949e+02,5.232985e+03
7.935657e+02,5.198719e+03
8.051365e+02,5.135995e+03
8.167073e+02,5.098850e+03
8.282781e+02,5.054957e+03
8.398489e+02,5.066468e+03
8.514197e+02,5.018454e+03
8.629905e+02,4.959640e+03
8.745613e+02,4.946909e+03
8.861321e+02,4.927340e+03
8.977029e+02,4.896331e+03
9.092737e+02,4.811196e+03
9.208445e+02,4.787521e+03
9.324153e+02,4.728783e+03
9.439861e+02,4.709523e+03
9.555569e+02,4.651453e+03
9.671277e+02,4.636330e+03
9.786985e+02,4.604167e+03
9.902693e+02,4.540529e+03
1.001840e+03,4.488406e+03
1.013411e+03,4.462139e+03
1.024982e+03,4.424386e+03
1.036552e+03,4.403168e+03
1.048123e+03,4.334720e+03
1.059694e+03,4.326356e+03
1.071265e+03,4.331842e+03
1.082836e+03,4.275791e+03
1.094406e+03,4.217596e+03
1.105977e+03,4.183924e+03
1.117548e+03,4.152312e+03
1.129119e+03,4.089344e+03
1.140690e+03,4.055718e+03
1.152261e+03,4.024188e+03
1.163831e+03,3.976041e+03
1.175402e+03,3.931845e+03
1.186973e+03,3.886536e+03
1.198544e+03,3.875808e+03
1.210115e+03,3.830722e+03
1.221685e+03,3.799081e+03
1.233256e+03,3.767966e+03
1.244827e+03,3.747264e+03
1.256398e+03,3.692758e+03
1.267969e+03,3.645327e+03
1.279539e+03,3.614495e+03
1.291110e+03,3.617555e+03
1.302681e+03,3.557112e+03
1.314252e+03,3.528222e+03
1.325823e+03,3.514171e+03
1.337393e+03,3.501791e+03
1.348964e+03,3.445450e+03
1.360535e+03,3.411286e+03
1.372106e+03,3.397083e+03
1.383677e+03,3.363694e+03
1.395247e+03,3.334888e+03
1.406818e+03,3.303216e+03
1.418389e+03,3.280641e+03
1.429960e+03,3.239258e+03
1.441531e+03,3.207704e+03
1.453101e+03,3.210364e+03
1.464672e+03,3.181767e+03
1.476243e+03,3.142578e+03
1.487814e+03,3.115242e+03
1.499385e+03,3.084112e+03
1.510955e+03,3.057532e+03
1.522526e+03,3.047477e+03
1.534097e+03,3.018338e+03
1.545668e+03,2.992475e+03
1.557239e+03,2.975836e+03
1.568809e+03,3.037343e+03
1.580380e+03,2.978542e+03
1.591951e+03,2.901632e+03
1.603522e+03,2.877865e+03
1.615093e+03,2.855883e+03
1.626663e+03,2.852571e+03
1.638234e+03,2.802314e+03
1.649805e+03,2.771405e+03
1.661376e+03,2.756906e+03
1.672947e+03,2.734877e+03
1.684517e+03,2.698314e+03
1.696088e+03,2.671552e+03
1.707659e+03,2.662600e+03
1.719230e+03,2.628606e+03
1.730801e+03,2.605249e+03
1.742371e+03,2.575740e+03
1.753942e+03,2.565555e+03
1.765513e+03,2.534353e+03
1.777084e+03,2.509140e+03
1.788655e+03,2.475484e+03
1.800225e+03,2.468029e+03
1.811796e+03,2.418906e+03
1.823367e+03,2.419806e+03
1.834938e+03,2.399913e+03
1.846509e+03,2.383477e+03
1.858079e+03,2.354511e+03
1.869650e+03,2.318885e+03
1.881221e+03,2.297576e+03
1.892792e+03,2.286509e+03
1.904363e+03,2.261984e+03
1.915933e+03,2.230713e+03
1.927504e+03,2.215431e+03
1.939075e+03,2.175331e+03
1.950646e+03,2.152952e+03
1.962217e+03,2.138692e+03
1.973787e+03,2.118070e+03
1.985358e+03,2.103769e+03
1.996929e+03,2.061268e+03
2.008500e+03,2.052313e+03
2.020071e+03,2.004112e+03
2.031641e+03,1.992989e+03
2.043212e+03,1.980495e+03
2.054783e+03,1.947243e+03
2.066354e+03,1.917113e+03
2.077925e+03,1.890939e+03
2.089496e+03,1.889128e+03
2.101066e+03,1.865353e+03
2.112637e+03,1.826674e+03
2.124208e+03,1.816511e+03
2.135779e+03,1.792227e+03
2.147350e+03,1.764544e+03
2.158920e+03,1.745056e+03
2.170491e+03,1.725861e+03
2.182062e+03,1.705324e+03
2.193633e+03,1.671264e+03
2.205204e+03,1.667725e+03
2.216774e+03,1.649019e+03
2.228345e+03,1.622716e+03
2.239916e+03,1.587284e+03
2.251487e+03,1.577796e+03
2.263058e+03,1.558475e+03
2.274628e+03,1.533871e+03
2.286199e+03,1.498061e+03
2.297770e+03,1.506288e+03
2.309341e+03,1.481593e+03
2.320912e+03,1.470326e+03
2.332482e+03,1.443750e+03
2.344053e+03,1.432087e+03
2.355624e+03,1.396312e+03
2.367195e+03,1.375709e+03
2.378766e+03,1.353242e+03
2.390336e+03,1.355313e+03
2.401907e+03,1.319676e+03
2.413478e+03,1.307848e+03
2.425049e+03,1.299805e+03
2.436620e+03,1.284480e+03
2.448190e+03,1.260514e+03
2.459761e+03,1.240383e+03
2.471332e+03,1.240325e+03
2.482903e+03,1.213588e+03
2.494474e+03,1.199566e+03
2.506044e+03,1.196987e+03
2.517615e+03,1.162010e+03
2.529186e+03,1.162491e+03
2.540757e+03,1.148602e+03
2.552328e+03,1.141286e+03
2.563898e+03,1.131720e+03
2.575469e+03,1.112936e+03
2.587040e+03,1.076079e+03
2.598611e+03,1.072800e+03
2.610182e+03,1.058533e+03
2.621752e+03,1.036013e+03
2.633323e+03,1.051656e+03
2.644894e+03,1.020744e+03
2.656465e+03,1.033659e+03
2.668036e+03,1.031206e+03
2.679606e+03,9.897852e+02
2.691177e+03,9.706399e+02
2.702748e+03,9.885829e+02
2.714319e+03,9.600949e+02
2.725890e+03,9.464453e+02
2.737460e+03,9.433433e+02
2.749031e+03,9.298461e+02
2.760602e+03,9.312907e+02
2.772173e+03,9.260178e+02
2.783744e+03,9.137334e+02
2.795314e+03,8.731247e+02
2.806885e+03,8.996776e+02
2.818456e+03,9.032780e+02
2.830027e+03,8.658041e+02
2.841598e+03,8.674404e+02
2.853168e+03,8.665578e+02
2.864739e+03,8.690534e+02
2.876310e+03,8.775366e+02
2.887881e+03,8.605325e+02
2.899452e+03,8.788250e+02
2.911022e+03,8.429086e+02
2.922593e+03,8.539500e+02
2.934164e+03,8.101385e+02
2.945735e+03,8.211826e+02
2.957306e+03,8.493466e+02
2.968876e+03,7.697383e+02
2.980447e+03,8.016426e+02
2.992018e+03,7.686615e+02
3.003589e+03,7.531270e+02
3.015160e+03,7.662969e+02
3.026730e+03,7.458859e+02
3.038301e+03,7.598911e+02
3.049872e+03,7.142052e+02
3.061443e+03,7.900582e+02
3.073014e+03,7.420540e+02
3.084584e+03,7.583371e+02
3.096155e+03,7.216537e+02
3.107726e+03,7.025919e+02
3.119297e+03,7.313179e+02
3.130868e+03,7.493224e+02
3.142438e+03,7.681659e+02
3.154009e+03,7.142218e+02
3.165580e+03,7.171879e+02
3.177151e+03,7.313876e+02
3.188722e+03,7.248175e+02
3.200292e+03,7.623682e+02
3.211863e+03,0.000000e+00
3.223434e+03,0.000000e+00
3.235005e+03,0.000000e+00
3.246576e+03,0.000000e+00
3.258146e+03,0.000000e+00
3.269717e+03,0.000000e+00
3.281288e+03,0.000000e+00
3.292859e+03,0.000000e+00
3.304430e+03,0.000000e+00
3.316000e+03,0.000000e+00
3.327571e+03,0.000000e+00
3.339142e+03,0.000000e+00
3.350713e+03,0.000000e+00
3.362284e+03,0.000000e+00
3.373854e+03,0.000000e+00
3.385425e+03,0.000000e+00
3.396996e+03,0.000000e+00
3.408567e+03,0.000000e+00
3.420138e+03,0.000000e+00
3.431708e+03,0.000000e+00
3.443279e+03,0.000000e+00
3.454850e+03,0.000000e+00
3.466421e+03,0.000000e+00
3.477992e+03,0.000000e+00
3.489563e+03,0.000000e+00
3.500169e+03,0.000000e+00