Folder: Taff_Bargoed_microplastics_data/RAMAN_data/23052023_r3 (part 7)

File: blue fibre17.CSV
9.931763e+01,0.000000e+00
1.108884e+02,0.000000e+00
1.224592e+02,0.000000e+00
1.340300e+02,0.000000e+00
1.456008e+02,0.000000e+00
1.571716e+02,0.000000e+00
1.687424e+02,0.000000e+00
1.803132e+02,0.000000e+00
1.918840e+02,0.000000e+00
2.034548e+02,3.260167e+03
2.150256e+02,3.277048e+03
2.265964e+02,3.314598e+03
2.381673e+02,3.368684e+03
2.497381e+02,3.426677e+03
2.613088e+02,3.438543e+03
2.728796e+02,3.505729e+03
2.844504e+02,3.549046e+03
2.960212e+02,3.550411e+03
3.075920e+02,3.548264e+03
3.191628e+02,3.592953e+03
3.307336e+02,3.624510e+03
3.423044e+02,3.623440e+03
3.538752e+02,3.636608e+03
3.654461e+02,3.654050e+03
3.770169e+02,3.703553e+03
3.885877e+02,3.682717e+03
4.001585e+02,3.707865e+03
4.117293e+02,3.703248e+03
4.233001e+02,3.730632e+03
4.348709e+02,3.741446e+03
4.464417e+02,3.750583e+03
4.580125e+02,3.754476e+03
4.695833e+02,3.739381e+03
4.811541e+02,3.761827e+03
4.927249e+02,3.758154e+03
5.042957e+02,3.771382e+03
5.158665e+02,3.773450e+03
5.274373e+02,3.769357e+03
5.390081e+02,3.768936e+03
5.505789e+02,3.825575e+03
5.621497e+02,3.808605e+03
5.737205e+02,3.761805e+03
5.852913e+02,3.732946e+03
5.968621e+02,3.781669e+03
6.084329e+02,3.792862e+03
6.200037e+02,3.718949e+03
6.315745e+02,3.720626e+03
6.431453e+02,3.703343e+03
6.547161e+02,3.680610e+03
6.662869e+02,3.676799e+03
6.778577e+02,3.636268e+03
6.894285e+02,3.630841e+03
7.009993e+02,3.619349e+03
7.125701e+02,3.589982e+03
7.241409e+02,3.569791e+03
7.357117e+02,3.562632e+03
7.472825e+02,3.555592e+03
7.588533e+02,3.529874e+03
7.704241e+02,3.507105e+03
7.819949e+02,3.472876e+03
7.935657e+02,3.485068e+03
8.051365e+02,3.442673e+03
8.167073e+02,3.406822e+03
8.282781e+02,3.411295e+03
8.398489e+02,3.386451e+03
8.514197e+02,3.343523e+03
8.629905e+02,3.324917e+03
8.745613e+02,3.325029e+03
8.861321e+02,3.283208e+03
8.977029e+02,3.267445e+03
9.092737e+02,3.221352e+03
9.208445e+02,3.192291e+03
9.324153e+02,3.184155e+03
9.439861e+02,3.136268e+03
9.555569e+02,3.122026e+03
9.671277e+02,3.101912e+03
9.786985e+02,3.060358e+03
9.902693e+02,3.027129e+03
1.001840e+03,2.995347e+03
1.013411e+03,2.980742e+03
1.024982e+03,2.960129e+03
1.036552e+03,2.934322e+03
1.048123e+03,2.914297e+03
1.059694e+03,2.890961e+03
1.071265e+03,2.887467e+03
1.082836e+03,2.891530e+03
1.094406e+03,2.838335e+03
1.105977e+03,2.820365e+03
1.117548e+03,2.804395e+03
1.129119e+03,2.750479e+03
1.140690e+03,2.718776e+03
1.152261e+03,2.706137e+03
1.163831e+03,2.672590e+03
1.175402e+03,2.638480e+03
1.186973e+03,2.628230e+03
1.198544e+03,2.604005e+03
1.210115e+03,2.577554e+03
1.221685e+03,2.557014e+03
1.233256e+03,2.524726e+03
1.244827e+03,2.516329e+03
1.256398e+03,2.471143e+03
1.267969e+03,2.446783e+03
1.279539e+03,2.425282e+03
1.291110e+03,2.414044e+03
1.302681e+03,2.398919e+03
1.314252e+03,2.381497e+03
1.325823e+03,2.355084e+03
1.337393e+03,2.364683e+03
1.348964e+03,2.322333e+03
1.360535e+03,2.300363e+03
1.372106e+03,2.294505e+03
1.383677e+03,2.283593e+03
1.395247e+03,2.239475e+03
1.406818e+03,2.212024e+03
1.418389e+03,2.198857e+03
1.429960e+03,2.194298e+03
1.441531e+03,2.160290e+03
1.453101e+03,2.162253e+03
1.464672e+03,2.131347e+03
1.476243e+03,2.117443e+03
1.487814e+03,2.084051e+03
1.499385e+03,2.084525e+03
1.510955e+03,2.052119e+03
1.522526e+03,2.056644e+03
1.534097e+03,2.026156e+03
1.545668e+03,2.000022e+03
1.557239e+03,1.996651e+03
1.568809e+03,2.052995e+03
1.580380e+03,2.011362e+03
1.591951e+03,1.968408e+03
1.603522e+03,1.944001e+03
1.615093e+03,1.921410e+03
1.626663e+03,1.912408e+03
1.638234e+03,1.897399e+03
1.649805e+03,1.878584e+03
1.661376e+03,1.861702e+03
1.672947e+03,1.856461e+03
1.684517e+03,1.830785e+03
1.696088e+03,1.823406e+03
1.707659e+03,1.795500e+03
1.719230e+03,1.768374e+03
1.730801e+03,1.767642e+03
1.742371e+03,1.750575e+03
1.753942e+03,1.733777e+03
1.765513e+03,1.731473e+03
1.777084e+03,1.707626e+03
1.788655e+03,1.684844e+03
1.800225e+03,1.690348e+03
1.811796e+03,1.654209e+03
1.823367e+03,1.633376e+03
1.834938e+03,1.639281e+03
1.846509e+03,1.609879e+03
1.858079e+03,1.607358e+03
1.869650e+03,1.578116e+03
1.881221e+03,1.562722e+03
1.892792e+03,1.535321e+03
1.904363e+03,1.528106e+03
1.915933e+03,1.519795e+03
1.927504e+03,1.510939e+03
1.939075e+03,1.483611e+03
1.950646e+03,1.461333e+03
1.962217e+03,1.460443e+03
1.973787e+03,1.442897e+03
1.985358e+03,1.428338e+03
1.996929e+03,1.407517e+03
2.008500e+03,1.402209e+03
2.020071e+03,1.386745e+03
2.031641e+03,1.378012e+03
2.043212e+03,1.351050e+03
2.054783e+03,1.330684e+03
2.066354e+03,1.331377e+03
2.077925e+03,1.304699e+03
2.089496e+03,1.304709e+03
2.101066e+03,1.271235e+03
2.112637e+03,1.265664e+03
2.124208e+03,1.256124e+03
2.135779e+03,1.229564e+03
2.147350e+03,1.206708e+03
2.158920e+03,1.204848e+03
2.170491e+03,1.191969e+03
2.182062e+03,1.167002e+03
2.193633e+03,1.145798e+03
2.205204e+03,1.154572e+03
2.216774e+03,1.121814e+03
2.228345e+03,1.110726e+03
2.239916e+03,1.079055e+03
2.251487e+03,1.096938e+03
2.263058e+03,1.069885e+03
2.274628e+03,1.036628e+03
2.286199e+03,1.026145e+03
2.297770e+03,1.029237e+03
2.309341e+03,1.002300e+03
2.320912e+03,1.002648e+03
2.332482e+03,9.800002e+02
2.344053e+03,9.735217e+02
2.355624e+03,9.689154e+02
2.367195e+03,9.570203e+02
2.378766e+03,9.210674e+02
2.390336e+03,9.171968e+02
2.401907e+03,9.177706e+02
2.413478e+03,9.013453e+02
2.425049e+03,8.806171e+02
2.436620e+03,8.849556e+02
2.448190e+03,8.582355e+02
2.459761e+03,8.432896e+02
2.471332e+03,8.440066e+02
2.482903e+03,8.310126e+02
2.494474e+03,8.229860e+02
2.506044e+03,8.106837e+02
2.517615e+03,7.986689e+02
2.529186e+03,7.758287e+02
2.540757e+03,7.722867e+02
2.552328e+03,7.830652e+02
2.563898e+03,7.613009e+02
2.575469e+03,7.574977e+02
2.587040e+03,7.502928e+02
2.598611e+03,7.379391e+02
2.610182e+03,7.250253e+02
2.621752e+03,7.170639e+02
2.633323e+03,6.972335e+02
2.644894e+03,7.087894e+02
2.656465e+03,6.963124e+02
2.668036e+03,6.865384e+02
2.679606e+03,6.638281e+02
2.691177e+03,6.748775e+02
2.702748e+03,6.810096e+02
2.714319e+03,6.450652e+02
2.725890e+03,6.647948e+02
2.737460e+03,6.485914e+02
2.749031e+03,6.354524e+02
2.760602e+03,6.385500e+02
2.772173e+03,6.265612e+02
2.783744e+03,6.213351e+02
2.795314e+03,6.164537e+02
2.806885e+03,6.116232e+02
2.818456e+03,6.108717e+02
2.830027e+03,6.245880e+02
2.841598e+03,5.861747e+02
2.853168e+03,6.026058e+02
2.864739e+03,5.853273e+02
2.876310e+03,5.891078e+02
2.887881e+03,6.086279e+02
2.899452e+03,6.002504e+02
2.911022e+03,5.936047e+02
2.922593e+03,5.615129e+02
2.934164e+03,5.852382e+02
2.945735e+03,5.711116e+02
2.957306e+03,6.149218e+02
2.968876e+03,5.683815e+02
2.980447e+03,5.340828e+02
2.992018e+03,5.340778e+02
3.003589e+03,5.420020e+02
3.015160e+03,5.395693e+02
3.026730e+03,5.119619e+02
3.038301e+03,5.243915e+02
3.049872e+03,4.970240e+02
3.061443e+03,5.154088e+02
3.073014e+03,5.263943e+02
3.084584e+03,5.067225e+02
3.096155e+03,5.019739e+02
3.107726e+03,4.951342e+02
3.119297e+03,5.010052e+02
3.130868e+03,5.195272e+02
3.142438e+03,5.402405e+02
3.154009e+03,5.044857e+02
3.165580e+03,5.205995e+02
3.177151e+03,5.217615e+02
3.188722e+03,5.302131e+02
3.200292e+03,5.567350e+02
3.211863e+03,0.000000e+00
3.223434e+03,0.000000e+00
3.235005e+03,0.000000e+00
3.246576e+03,0.000000e+00
3.258146e+03,0.000000e+00
3.269717e+03,0.000000e+00
3.281288e+03,0.000000e+00
3.292859e+03,0.000000e+00
3.304430e+03,0.000000e+00
3.316000e+03,0.000000e+00
3.327571e+03,0.000000e+00
3.339142e+03,0.000000e+00
3.350713e+03,0.000000e+00
3.362284e+03,0.000000e+00
3.373854e+03,0.000000e+00
3.385425e+03,0.000000e+00
3.396996e+03,0.000000e+00
3.408567e+03,0.000000e+00
3.420138e+03,0.000000e+00
3.431708e+03,0.000000e+00
3.443279e+03,0.000000e+00
3.454850e+03,0.000000e+00
3.466421e+03,0.000000e+00
3.477992e+03,0.000000e+00
3.489563e+03,0.000000e+00
3.500169e+03,0.000000e+00

File: blue fibre18.CSV
9.931763e+01,0.000000e+00
1.108884e+02,0.000000e+00
1.224592e+02,0.000000e+00
1.340300e+02,0.000000e+00
1.456008e+02,0.000000e+00
1.571716e+02,0.000000e+00
1.687424e+02,0.000000e+00
1.803132e+02,0.000000e+00
1.918840e+02,0.000000e+00
2.034548e+02,9.755952e+03
2.150256e+02,9.801147e+03
2.265964e+02,9.853143e+03
2.381673e+02,9.986342e+03
2.497381e+02,1.012762e+04
2.613088e+02,1.016073e+04
2.728796e+02,1.028201e+04
2.844504e+02,1.033188e+04
2.960212e+02,1.030759e+04
3.075920e+02,1.028820e+04
3.191628e+02,1.033281e+04
3.307336e+02,1.038788e+04
3.423044e+02,1.039515e+04
3.538752e+02,1.043252e+04
3.654461e+02,1.043415e+04
3.770169e+02,1.048407e+04
3.885877e+02,1.055147e+04
4.001585e+02,1.054811e+04
4.117293e+02,1.053884e+04
4.233001e+02,1.054913e+04
4.348709e+02,1.060275e+04
4.464417e+02,1.062376e+04
4.580125e+02,1.062939e+04
4.695833e+02,1.063777e+04
4.811541e+02,1.060032e+04
4.927249e+02,1.060475e+04
5.042957e+02,1.066106e+04
5.158665e+02,1.065414e+04
5.274373e+02,1.070331e+04
5.390081e+02,1.082413e+04
5.505789e+02,1.085929e+04
5.621497e+02,1.084491e+04
5.737205e+02,1.066272e+04
5.852913e+02,1.064970e+04
5.968621e+02,1.070466e+04
6.084329e+02,1.079208e+04
6.200037e+02,1.061189e+04
6.315745e+02,1.058208e+04
6.431453e+02,1.055182e+04
6.547161e+02,1.052006e+04
6.662869e+02,1.050617e+04
6.778577e+02,1.048503e+04
6.894285e+02,1.042231e+04
7.009993e+02,1.037600e+04
7.125701e+02,1.034735e+04
7.241409e+02,1.028601e+04
7.357117e+02,1.026983e+04
7.472825e+02,1.027134e+04
7.588533e+02,1.024500e+04
7.704241e+02,1.016778e+04
7.819949e+02,1.019030e+04
7.935657e+02,1.012518e+04
8.051365e+02,1.006446e+04
8.167073e+02,9.988760e+03
8.282781e+02,9.978027e+03
8.398489e+02,9.964061e+03
8.514197e+02,9.868210e+03
8.629905e+02,9.803291e+03
8.745613e+02,9.746925e+03
8.861321e+02,9.751431e+03
8.977029e+02,9.672428e+03
9.092737e+02,9.590137e+03
9.208445e+02,9.550136e+03
9.324153e+02,9.502105e+03
9.439861e+02,9.467020e+03
9.555569e+02,9.376311e+03
9.671277e+02,9.340141e+03
9.786985e+02,9.303265e+03
9.902693e+02,9.226309e+03
1.001840e+03,9.138016e+03
1.013411e+03,9.116629e+03
1.024982e+03,9.083717e+03
1.036552e+03,9.007093e+03
1.048123e+03,8.957122e+03
1.059694e+03,8.940020e+03
1.071265e+03,8.945050e+03
1.082836e+03,8.917678e+03
1.094406e+03,8.774365e+03
1.105977e+03,8.717351e+03
1.117548e+03,8.684118e+03
1.129119e+03,8.599382e+03
1.140690e+03,8.575483e+03
1.152261e+03,8.528656e+03
1.163831e+03,8.446171e+03
1.175402e+03,8.417164e+03
1.186973e+03,8.364345e+03
1.198544e+03,8.345987e+03
1.210115e+03,8.291355e+03
1.221685e+03,8.269481e+03
1.233256e+03,8.162533e+03
1.244827e+03,8.115587e+03
1.256398e+03,8.044069e+03
1.267969e+03,7.957828e+03
1.279539e+03,7.912655e+03
1.291110e+03,7.853175e+03
1.302681e+03,7.837996e+03
1.314252e+03,7.811096e+03
1.325823e+03,7.731407e+03
1.337393e+03,7.737080e+03
1.348964e+03,7.658019e+03
1.360535e+03,7.618239e+03
1.372106e+03,7.515477e+03
1.383677e+03,7.445003e+03
1.395247e+03,7.383736e+03
1.406818e+03,7.363443e+03
1.418389e+03,7.316959e+03
1.429960e+03,7.262896e+03
1.441531e+03,7.223959e+03
1.453101e+03,7.232369e+03
1.464672e+03,7.120977e+03
1.476243e+03,7.081683e+03
1.487814e+03,7.019359e+03
1.499385e+03,6.973155e+03
1.510955e+03,6.977686e+03
1.522526e+03,6.961966e+03
1.534097e+03,6.867349e+03
1.545668e+03,6.791690e+03
1.557239e+03,6.839666e+03
1.568809e+03,7.097833e+03
1.580380e+03,6.919060e+03
1.591951e+03,6.651438e+03
1.603522e+03,6.613516e+03
1.615093e+03,6.551690e+03
1.626663e+03,6.549159e+03
1.638234e+03,6.407063e+03
1.649805e+03,6.352861e+03
1.661376e+03,6.285614e+03
1.672947e+03,6.287750e+03
1.684517e+03,6.200828e+03
1.696088e+03,6.161667e+03
1.707659e+03,6.094998e+03
1.719230e+03,6.071811e+03
1.730801e+03,6.002163e+03
1.742371e+03,5.940128e+03
1.753942e+03,5.911106e+03
1.765513e+03,5.891178e+03
1.777084e+03,5.810607e+03
1.788655e+03,5.780122e+03
1.800225e+03,5.745845e+03
1.811796e+03,5.702604e+03
1.823367e+03,5.619509e+03
1.834938e+03,5.579037e+03
1.846509e+03,5.554009e+03
1.858079e+03,5.491974e+03
1.869650e+03,5.459777e+03
1.881221e+03,5.381667e+03
1.892792e+03,5.369232e+03
1.904363e+03,5.334077e+03
1.915933e+03,5.224166e+03
1.927504e+03,5.218021e+03
1.939075e+03,5.149148e+03
1.950646e+03,5.114656e+03
1.962217e+03,5.075439e+03
1.973787e+03,5.015908e+03
1.985358e+03,4.977133e+03
1.996929e+03,4.901634e+03
2.008500e+03,4.868655e+03
2.020071e+03,4.819351e+03
2.031641e+03,4.805392e+03
2.043212e+03,4.718040e+03
2.054783e+03,4.650779e+03
2.066354e+03,4.643294e+03
2.077925e+03,4.583093e+03
2.089496e+03,4.592406e+03
2.101066e+03,4.502958e+03
2.112637e+03,4.473530e+03
2.124208e+03,4.437970e+03
2.135779e+03,4.403485e+03
2.147350e+03,4.269625e+03
2.158920e+03,4.257072e+03
2.170491e+03,4.228187e+03
2.182062e+03,4.182699e+03
2.193633e+03,4.141839e+03
2.205204e+03,4.127549e+03
2.216774e+03,4.070476e+03
2.228345e+03,3.999147e+03
2.239916e+03,3.932837e+03
2.251487e+03,3.926693e+03
2.263058e+03,3.865828e+03
2.274628e+03,3.812101e+03
2.286199e+03,3.769609e+03
2.297770e+03,3.755334e+03
2.309341e+03,3.676652e+03
2.320912e+03,3.645014e+03
2.332482e+03,3.630447e+03
2.344053e+03,3.607101e+03
2.355624e+03,3.570998e+03
2.367195e+03,3.505680e+03
2.378766e+03,3.433136e+03
2.390336e+03,3.418442e+03
2.401907e+03,3.369849e+03
2.413478e+03,3.330629e+03
2.425049e+03,3.313379e+03
2.436620e+03,3.250777e+03
2.448190e+03,3.181969e+03
2.459761e+03,3.182894e+03
2.471332e+03,3.180009e+03
2.482903e+03,3.108992e+03
2.494474e+03,3.092349e+03
2.506044e+03,3.048645e+03
2.517615e+03,3.015654e+03
2.529186e+03,2.974055e+03
2.540757e+03,2.952608e+03
2.552328e+03,2.938074e+03
2.563898e+03,2.885757e+03
2.575469e+03,2.864753e+03
2.587040e+03,2.847417e+03
2.598611e+03,2.815792e+03
2.610182e+03,2.784774e+03
2.621752e+03,2.773775e+03
2.633323e+03,2.740935e+03
2.644894e+03,2.712635e+03
2.656465e+03,2.676402e+03
2.668036e+03,2.653120e+03
2.679606e+03,2.616508e+03
2.691177e+03,2.609161e+03
2.702748e+03,2.551508e+03
2.714319e+03,2.534208e+03
2.725890e+03,2.542063e+03
2.737460e+03,2.508927e+03
2.749031e+03,2.450098e+03
2.760602e+03,2.443663e+03
2.772173e+03,2.425945e+03
2.783744e+03,2.398146e+03
2.795314e+03,2.422343e+03
2.806885e+03,2.373534e+03
2.818456e+03,2.374443e+03
2.830027e+03,2.327624e+03
2.841598e+03,2.315935e+03
2.853168e+03,2.281418e+03
2.864739e+03,2.272502e+03
2.876310e+03,2.265792e+03
2.887881e+03,2.196802e+03
2.899452e+03,2.188465e+03
2.911022e+03,2.154287e+03
2.922593e+03,2.163938e+03
2.934164e+03,2.152826e+03
2.945735e+03,2.169181e+03
2.957306e+03,2.170058e+03
2.968876e+03,2.129341e+03
2.980447e+03,2.081852e+03
2.992018e+03,2.104210e+03
3.003589e+03,2.028719e+03
3.015160e+03,2.049494e+03
3.026730e+03,2.061799e+03
3.038301e+03,1.988892e+03
3.049872e+03,2.045686e+03
3.061443e+03,1.993333e+03
3.073014e+03,1.988265e+03
3.084584e+03,1.960939e+03
3.096155e+03,1.957758e+03
3.107726e+03,1.977530e+03
3.119297e+03,1.986184e+03
3.130868e+03,1.970842e+03
3.142438e+03,1.968354e+03
3.154009e+03,1.951579e+03
3.165580e+03,1.987742e+03
3.177151e+03,1.943897e+03
3.188722e+03,1.970565e+03
3.200292e+03,2.042804e+03
3.211863e+03,0.000000e+00
3.223434e+03,0.000000e+00
3.235005e+03,0.000000e+00
3.246576e+03,0.000000e+00
3.258146e+03,0.000000e+00
3.269717e+03,0.000000e+00
3.281288e+03,0.000000e+00
3.292859e+03,0.000000e+00
3.304430e+03,0.000000e+00
3.316000e+03,0.000000e+00
3.327571e+03,0.000000e+00
3.339142e+03,0.000000e+00
3.350713e+03,0.000000e+00
3.362284e+03,0.000000e+00
3.373854e+03,0.000000e+00
3.385425e+03,0.000000e+00
3.396996e+03,0.000000e+00
3.408567e+03,0.000000e+00
3.420138e+03,0.000000e+00
3.431708e+03,0.000000e+00
3.443279e+03,0.000000e+00
3.454850e+03,0.000000e+00
3.466421e+03,0.000000e+00
3.477992e+03,0.000000e+00
3.489563e+03,0.000000e+00
3.500169e+03,0.000000e+00

File: blue fibre37.CSV
9.931763e+01,0.000000e+00
1.108884e+02,0.000000e+00
1.224592e+02,0.000000e+00
1.340300e+02,0.000000e+00
1.456008e+02,0.000000e+00
1.571716e+02,0.000000e+00
1.687424e+02,0.000000e+00
1.803132e+02,0.000000e+00
1.918840e+02,0.000000e+00
2.034548e+02,4.100195e+03
2.150256e+02,4.129869e+03
2.265964e+02,4.180733e+03
2.381673e+02,4.236543e+03
2.497381e+02,4.295287e+03
2.613088e+02,4.307671e+03
2.728796e+02,4.373700e+03
2.844504e+02,4.418196e+03
2.960212e+02,4.407422e+03
3.075920e+02,4.421548e+03
3.191628e+02,4.446440e+03
3.307336e+02,4.481485e+03
3.423044e+02,4.499696e+03
3.538752e+02,4.522540e+03
3.654461e+02,4.529705e+03
3.770169e+02,4.577695e+03
3.885877e+02,4.590316e+03
4.001585e+02,4.586808e+03
4.117293e+02,4.600953e+03
4.233001e+02,4.598757e+03
4.348709e+02,4.604400e+03
4.464417e+02,4.638972e+03
4.580125e+02,4.616439e+03
4.695833e+02,4.600428e+03
4.811541e+02,4.629501e+03
4.927249e+02,4.605065e+03
5.042957e+02,4.606468e+03
5.158665e+02,4.603729e+03
5.274373e+02,4.604515e+03
5.390081e+02,4.620531e+03
5.505789e+02,4.633605e+03
5.621497e+02,4.634299e+03
5.737205e+02,4.581138e+03
5.852913e+02,4.539462e+03
5.968621e+02,4.574077e+03
6.084329e+02,4.587264e+03
6.200037e+02,4.509603e+03
6.315745e+02,4.509912e+03
6.431453e+02,4.485382e+03
6.547161e+02,4.472317e+03
6.662869e+02,4.453033e+03
6.778577e+02,4.442327e+03
6.894285e+02,4.401342e+03
7.009993e+02,4.395358e+03
7.125701e+02,4.348462e+03
7.241409e+02,4.326083e+03
7.357117e+02,4.288234e+03
7.472825e+02,4.275729e+03
7.588533e+02,4.224720e+03
7.704241e+02,4.198537e+03
7.819949e+02,4.200828e+03
7.935657e+02,4.165475e+03
8.051365e+02,4.127907e+03
8.167073e+02,4.080106e+03
8.282781e+02,4.066896e+03
8.398489e+02,4.059117e+03
8.514197e+02,4.008883e+03
8.629905e+02,4.001567e+03
8.745613e+02,3.949106e+03
8.861321e+02,3.949435e+03
8.977029e+02,3.917032e+03
9.092737e+02,3.864326e+03
9.208445e+02,3.842563e+03
9.324153e+02,3.814071e+03
9.439861e+02,3.771736e+03
9.555569e+02,3.720288e+03
9.671277e+02,3.699978e+03
9.786985e+02,3.680848e+03
9.902693e+02,3.633927e+03
1.001840e+03,3.582107e+03
1.013411e+03,3.563150e+03
1.024982e+03,3.538102e+03
1.036552e+03,3.506294e+03
1.048123e+03,3.467170e+03
1.059694e+03,3.469458e+03
1.071265e+03,3.454683e+03
1.082836e+03,3.442809e+03
1.094406e+03,3.379813e+03
1.105977e+03,3.359351e+03
1.117548e+03,3.349043e+03
1.129119e+03,3.301628e+03
1.140690e+03,3.273181e+03
1.152261e+03,3.245982e+03
1.163831e+03,3.215442e+03
1.175402e+03,3.188362e+03
1.186973e+03,3.158633e+03
1.198544e+03,3.138744e+03
1.210115e+03,3.114738e+03
1.221685e+03,3.079988e+03
1.233256e+03,3.056500e+03
1.244827e+03,3.043691e+03
1.256398e+03,3.005911e+03
1.267969e+03,2.968928e+03
1.279539e+03,2.945887e+03
1.291110e+03,2.930708e+03
1.302681e+03,2.907361e+03
1.314252e+03,2.869988e+03
1.325823e+03,2.865119e+03
1.337393e+03,2.856634e+03
1.348964e+03,2.831811e+03
1.360535e+03,2.807340e+03
1.372106e+03,2.797118e+03
1.383677e+03,2.769399e+03
1.395247e+03,2.748150e+03
1.406818e+03,2.721325e+03
1.418389e+03,2.697543e+03
1.429960e+03,2.690991e+03
1.441531e+03,2.662764e+03
1.453101e+03,2.660248e+03
1.464672e+03,2.632341e+03
1.476243e+03,2.612663e+03
1.487814e+03,2.578448e+03
1.499385e+03,2.553390e+03
1.510955e+03,2.546772e+03
1.522526e+03,2.521660e+03
1.534097e+03,2.489630e+03
1.545668e+03,2.481446e+03
1.557239e+03,2.477184e+03
1.568809e+03,2.498626e+03
1.580380e+03,2.473680e+03
1.591951e+03,2.404587e+03
1.603522e+03,2.397223e+03
1.615093e+03,2.384614e+03
1.626663e+03,2.367919e+03
1.638234e+03,2.334286e+03
1.649805e+03,2.309013e+03
1.661376e+03,2.301274e+03
1.672947e+03,2.274249e+03
1.684517e+03,2.235837e+03
1.696088e+03,2.233123e+03
1.707659e+03,2.206076e+03
1.719230e+03,2.164532e+03
1.730801e+03,2.151659e+03
1.742371e+03,2.147258e+03
1.753942e+03,2.108799e+03
1.765513e+03,2.090061e+03
1.777084e+03,2.066728e+03
1.788655e+03,2.032229e+03
1.800225e+03,2.044696e+03
1.811796e+03,2.013997e+03
1.823367e+03,1.985718e+03
1.834938e+03,1.995619e+03
1.846509e+03,1.981106e+03
1.858079e+03,1.945391e+03
1.869650e+03,1.922514e+03
1.881221e+03,1.894520e+03
1.892792e+03,1.887783e+03
1.904363e+03,1.860513e+03
1.915933e+03,1.844958e+03
1.927504e+03,1.826664e+03
1.939075e+03,1.808217e+03
1.950646e+03,1.776387e+03
1.962217e+03,1.758840e+03
1.973787e+03,1.736445e+03
1.985358e+03,1.720772e+03
1.996929e+03,1.696564e+03
2.008500e+03,1.700063e+03
2.020071e+03,1.663994e+03
2.031641e+03,1.638301e+03
2.043212e+03,1.642716e+03
2.054783e+03,1.596159e+03
2.066354e+03,1.572841e+03
2.077925e+03,1.558920e+03
2.089496e+03,1.557350e+03
2.101066e+03,1.548282e+03
2.112637e+03,1.506941e+03
2.124208e+03,1.514438e+03
2.135779e+03,1.474195e+03
2.147350e+03,1.450480e+03
2.158920e+03,1.422139e+03
2.170491e+03,1.418190e+03
2.182062e+03,1.416992e+03
2.193633e+03,1.367268e+03
2.205204e+03,1.360196e+03
2.216774e+03,1.362153e+03
2.228345e+03,1.335350e+03
2.239916e+03,1.308424e+03
2.251487e+03,1.293859e+03
2.263058e+03,1.278949e+03
2.274628e+03,1.265725e+03
2.286199e+03,1.239212e+03
2.297770e+03,1.228440e+03
2.309341e+03,1.198831e+03
2.320912e+03,1.194656e+03
2.332482e+03,1.178870e+03
2.344053e+03,1.177656e+03
2.355624e+03,1.145626e+03
2.367195e+03,1.127948e+03
2.378766e+03,1.128428e+03
2.390336e+03,1.103062e+03
2.401907e+03,1.083422e+03
2.413478e+03,1.078877e+03
2.425049e+03,1.059995e+03
2.436620e+03,1.055466e+03
2.448190e+03,1.040998e+03
2.459761e+03,1.009041e+03
2.471332e+03,1.015710e+03
2.482903e+03,9.837757e+02
2.494474e+03,9.959578e+02
2.506044e+03,9.768870e+02
2.517615e+03,9.524375e+02
2.529186e+03,9.439669e+02
2.540757e+03,9.429648e+02
2.552328e+03,9.228860e+02
2.563898e+03,9.306263e+02
2.575469e+03,9.026845e+02
2.587040e+03,8.970883e+02
2.598611e+03,8.775412e+02
2.610182e+03,8.841127e+02
2.621752e+03,8.803891e+02
2.633323e+03,8.501423e+02
2.644894e+03,8.461211e+02
2.656465e+03,8.379343e+02
2.668036e+03,8.181631e+02
2.679606e+03,8.398665e+02
2.691177e+03,7.988779e+02
2.702748e+03,8.022429e+02
2.714319e+03,7.879636e+02
2.725890e+03,8.010554e+02
2.737460e+03,7.674184e+02
2.749031e+03,7.561222e+02
2.760602e+03,7.655792e+02
2.772173e+03,7.467849e+02
2.783744e+03,7.413964e+02
2.795314e+03,7.362570e+02
2.806885e+03,7.341239e+02
2.818456e+03,7.310870e+02
2.830027e+03,7.313624e+02
2.841598e+03,7.013421e+02
2.853168e+03,7.107729e+02
2.864739e+03,7.192744e+02
2.876310e+03,7.066086e+02
2.887881e+03,7.023464e+02
2.899452e+03,7.083118e+02
2.911022e+03,6.907701e+02
2.922593e+03,6.708446e+02
2.934164e+03,6.541645e+02
2.945735e+03,6.728958e+02
2.957306e+03,7.197247e+02
2.968876e+03,6.414891e+02
2.980447e+03,6.605775e+02
2.992018e+03,6.377778e+02
3.003589e+03,6.211537e+02
3.015160e+03,6.090284e+02
3.026730e+03,6.099524e+02
3.038301e+03,6.143923e+02
3.049872e+03,6.113942e+02
3.061443e+03,6.312678e+02
3.073014e+03,6.053745e+02
3.084584e+03,6.141486e+02
3.096155e+03,6.018425e+02
3.107726e+03,5.934191e+02
3.119297e+03,6.333126e+02
3.130868e+03,6.408378e+02
3.142438e+03,6.285209e+02
3.154009e+03,6.110201e+02
3.165580e+03,6.142430e+02
3.177151e+03,6.116908e+02
3.188722e+03,6.270944e+02
3.200292e+03,6.676695e+02
3.211863e+03,0.000000e+00
3.223434e+03,0.000000e+00
3.235005e+03,0.000000e+00
3.246576e+03,0.000000e+00
3.258146e+03,0.000000e+00
3.269717e+03,0.000000e+00
3.281288e+03,0.000000e+00
3.292859e+03,0.000000e+00
3.304430e+03,0.000000e+00
3.316000e+03,0.000000e+00
3.327571e+03,0.000000e+00
3.339142e+03,0.000000e+00
3.350713e+03,0.000000e+00
3.362284e+03,0.000000e+00
3.373854e+03,0.000000e+00
3.385425e+03,0.000000e+00
3.396996e+03,0.000000e+00
3.408567e+03,0.000000e+00
3.420138e+03,0.000000e+00
3.431708e+03,0.000000e+00
3.443279e+03,0.000000e+00
3.454850e+03,0.000000e+00
3.466421e+03,0.000000e+00
3.477992e+03,0.000000e+00
3.489563e+03,0.000000e+00
3.500169e+03,0.000000e+00