Folder: Taff_Bargoed_microplastics_data/RAMAN_data/23052023_r3 (part 6)

File: blue fibre14.CSV
9.931763e+01,0.000000e+00
1.108884e+02,0.000000e+00
1.224592e+02,0.000000e+00
1.340300e+02,0.000000e+00
1.456008e+02,0.000000e+00
1.571716e+02,0.000000e+00
1.687424e+02,0.000000e+00
1.803132e+02,0.000000e+00
1.918840e+02,0.000000e+00
2.034548e+02,4.236233e+03
2.150256e+02,4.312808e+03
2.265964e+02,4.342959e+03
2.381673e+02,4.441679e+03
2.497381e+02,4.535099e+03
2.613088e+02,4.562648e+03
2.728796e+02,4.652521e+03
2.844504e+02,4.709574e+03
2.960212e+02,4.681733e+03
3.075920e+02,4.714511e+03
3.191628e+02,4.763840e+03
3.307336e+02,4.789835e+03
3.423044e+02,4.828718e+03
3.538752e+02,4.828603e+03
3.654461e+02,4.894213e+03
3.770169e+02,4.933367e+03
3.885877e+02,4.967374e+03
4.001585e+02,4.967707e+03
4.117293e+02,4.996134e+03
4.233001e+02,5.029711e+03
4.348709e+02,5.062101e+03
4.464417e+02,5.084011e+03
4.580125e+02,5.085451e+03
4.695833e+02,5.111416e+03
4.811541e+02,5.112022e+03
4.927249e+02,5.145041e+03
5.042957e+02,5.157146e+03
5.158665e+02,5.189041e+03
5.274373e+02,5.195364e+03
5.390081e+02,5.257397e+03
5.505789e+02,5.298041e+03
5.621497e+02,5.314426e+03
5.737205e+02,5.210467e+03
5.852913e+02,5.180955e+03
5.968621e+02,5.254898e+03
6.084329e+02,5.321685e+03
6.200037e+02,5.212932e+03
6.315745e+02,5.205120e+03
6.431453e+02,5.192947e+03
6.547161e+02,5.197195e+03
6.662869e+02,5.185817e+03
6.778577e+02,5.179779e+03
6.894285e+02,5.145513e+03
7.009993e+02,5.096127e+03
7.125701e+02,5.100375e+03
7.241409e+02,5.050444e+03
7.357117e+02,5.046346e+03
7.472825e+02,5.038843e+03
7.588533e+02,5.024450e+03
7.704241e+02,4.983797e+03
7.819949e+02,5.002313e+03
7.935657e+02,4.978398e+03
8.051365e+02,4.902161e+03
8.167073e+02,4.873432e+03
8.282781e+02,4.877975e+03
8.398489e+02,4.859959e+03
8.514197e+02,4.801561e+03
8.629905e+02,4.781179e+03
8.745613e+02,4.770917e+03
8.861321e+02,4.764302e+03
8.977029e+02,4.709771e+03
9.092737e+02,4.655700e+03
9.208445e+02,4.621129e+03
9.324153e+02,4.589717e+03
9.439861e+02,4.558494e+03
9.555569e+02,4.519724e+03
9.671277e+02,4.468108e+03
9.786985e+02,4.452616e+03
9.902693e+02,4.392167e+03
1.001840e+03,4.348609e+03
1.013411e+03,4.345972e+03
1.024982e+03,4.293164e+03
1.036552e+03,4.255329e+03
1.048123e+03,4.238928e+03
1.059694e+03,4.204741e+03
1.071265e+03,4.232375e+03
1.082836e+03,4.215787e+03
1.094406e+03,4.141702e+03
1.105977e+03,4.109073e+03
1.117548e+03,4.074275e+03
1.129119e+03,4.018565e+03
1.140690e+03,4.006289e+03
1.152261e+03,3.963434e+03
1.163831e+03,3.924952e+03
1.175402e+03,3.894574e+03
1.186973e+03,3.871263e+03
1.198544e+03,3.859888e+03
1.210115e+03,3.797863e+03
1.221685e+03,3.779364e+03
1.233256e+03,3.750770e+03
1.244827e+03,3.718529e+03
1.256398e+03,3.667363e+03
1.267969e+03,3.633186e+03
1.279539e+03,3.614613e+03
1.291110e+03,3.589923e+03
1.302681e+03,3.544556e+03
1.314252e+03,3.541290e+03
1.325823e+03,3.516707e+03
1.337393e+03,3.506139e+03
1.348964e+03,3.453815e+03
1.360535e+03,3.429983e+03
1.372106e+03,3.397743e+03
1.383677e+03,3.378698e+03
1.395247e+03,3.339774e+03
1.406818e+03,3.312252e+03
1.418389e+03,3.290158e+03
1.429960e+03,3.260130e+03
1.441531e+03,3.253714e+03
1.453101e+03,3.263649e+03
1.464672e+03,3.210951e+03
1.476243e+03,3.192091e+03
1.487814e+03,3.174470e+03
1.499385e+03,3.148230e+03
1.510955e+03,3.150189e+03
1.522526e+03,3.106533e+03
1.534097e+03,3.068602e+03
1.545668e+03,3.057481e+03
1.557239e+03,3.062342e+03
1.568809e+03,3.185942e+03
1.580380e+03,3.108011e+03
1.591951e+03,2.995613e+03
1.603522e+03,2.974698e+03
1.615093e+03,2.936811e+03
1.626663e+03,2.951140e+03
1.638234e+03,2.884853e+03
1.649805e+03,2.841178e+03
1.661376e+03,2.830938e+03
1.672947e+03,2.824387e+03
1.684517e+03,2.802385e+03
1.696088e+03,2.764199e+03
1.707659e+03,2.757075e+03
1.719230e+03,2.737184e+03
1.730801e+03,2.691392e+03
1.742371e+03,2.669653e+03
1.753942e+03,2.661958e+03
1.765513e+03,2.639921e+03
1.777084e+03,2.606515e+03
1.788655e+03,2.585378e+03
1.800225e+03,2.584517e+03
1.811796e+03,2.543519e+03
1.823367e+03,2.518862e+03
1.834938e+03,2.515346e+03
1.846509e+03,2.477053e+03
1.858079e+03,2.471561e+03
1.869650e+03,2.425205e+03
1.881221e+03,2.402902e+03
1.892792e+03,2.394531e+03
1.904363e+03,2.359992e+03
1.915933e+03,2.331989e+03
1.927504e+03,2.304734e+03
1.939075e+03,2.275764e+03
1.950646e+03,2.261842e+03
1.962217e+03,2.243367e+03
1.973787e+03,2.243121e+03
1.985358e+03,2.205589e+03
1.996929e+03,2.192914e+03
2.008500e+03,2.157007e+03
2.020071e+03,2.136106e+03
2.031641e+03,2.114430e+03
2.043212e+03,2.088787e+03
2.054783e+03,2.065862e+03
2.066354e+03,2.048181e+03
2.077925e+03,2.027981e+03
2.089496e+03,1.992921e+03
2.101066e+03,1.974233e+03
2.112637e+03,1.954781e+03
2.124208e+03,1.959782e+03
2.135779e+03,1.895290e+03
2.147350e+03,1.900913e+03
2.158920e+03,1.878765e+03
2.170491e+03,1.852475e+03
2.182062e+03,1.804050e+03
2.193633e+03,1.781927e+03
2.205204e+03,1.780549e+03
2.216774e+03,1.771216e+03
2.228345e+03,1.714379e+03
2.239916e+03,1.692882e+03
2.251487e+03,1.690513e+03
2.263058e+03,1.661020e+03
2.274628e+03,1.642209e+03
2.286199e+03,1.619216e+03
2.297770e+03,1.616300e+03
2.309341e+03,1.570999e+03
2.320912e+03,1.551553e+03
2.332482e+03,1.539807e+03
2.344053e+03,1.518709e+03
2.355624e+03,1.526254e+03
2.367195e+03,1.486433e+03
2.378766e+03,1.477709e+03
2.390336e+03,1.460798e+03
2.401907e+03,1.433530e+03
2.413478e+03,1.435204e+03
2.425049e+03,1.408500e+03
2.436620e+03,1.394748e+03
2.448190e+03,1.360938e+03
2.459761e+03,1.351203e+03
2.471332e+03,1.326311e+03
2.482903e+03,1.312611e+03
2.494474e+03,1.309811e+03
2.506044e+03,1.278435e+03
2.517615e+03,1.271052e+03
2.529186e+03,1.244207e+03
2.540757e+03,1.220403e+03
2.552328e+03,1.235068e+03
2.563898e+03,1.208331e+03
2.575469e+03,1.197300e+03
2.587040e+03,1.167246e+03
2.598611e+03,1.180082e+03
2.610182e+03,1.145612e+03
2.621752e+03,1.138849e+03
2.633323e+03,1.111360e+03
2.644894e+03,1.117368e+03
2.656465e+03,1.100372e+03
2.668036e+03,1.077930e+03
2.679606e+03,1.077530e+03
2.691177e+03,1.077723e+03
2.702748e+03,1.084117e+03
2.714319e+03,1.063791e+03
2.725890e+03,1.039994e+03
2.737460e+03,1.009427e+03
2.749031e+03,1.029192e+03
2.760602e+03,1.033022e+03
2.772173e+03,1.009568e+03
2.783744e+03,9.722632e+02
2.795314e+03,9.781757e+02
2.806885e+03,9.778553e+02
2.818456e+03,9.839609e+02
2.830027e+03,9.516693e+02
2.841598e+03,9.592272e+02
2.853168e+03,9.470670e+02
2.864739e+03,9.487386e+02
2.876310e+03,9.420147e+02
2.887881e+03,9.286374e+02
2.899452e+03,9.502473e+02
2.911022e+03,9.066161e+02
2.922593e+03,9.133929e+02
2.934164e+03,8.789107e+02
2.945735e+03,8.841743e+02
2.957306e+03,9.503842e+02
2.968876e+03,8.694355e+02
2.980447e+03,8.657297e+02
2.992018e+03,8.523438e+02
3.003589e+03,8.217688e+02
3.015160e+03,8.488492e+02
3.026730e+03,8.452108e+02
3.038301e+03,8.482808e+02
3.049872e+03,8.099144e+02
3.061443e+03,8.118504e+02
3.073014e+03,8.081251e+02
3.084584e+03,8.100193e+02
3.096155e+03,7.781473e+02
3.107726e+03,7.784263e+02
3.119297e+03,8.181898e+02
3.130868e+03,8.094044e+02
3.142438e+03,8.291569e+02
3.154009e+03,7.935923e+02
3.165580e+03,8.008086e+02
3.177151e+03,8.067381e+02
3.188722e+03,8.113319e+02
3.200292e+03,8.007188e+02
3.211863e+03,0.000000e+00
3.223434e+03,0.000000e+00
3.235005e+03,0.000000e+00
3.246576e+03,0.000000e+00
3.258146e+03,0.000000e+00
3.269717e+03,0.000000e+00
3.281288e+03,0.000000e+00
3.292859e+03,0.000000e+00
3.304430e+03,0.000000e+00
3.316000e+03,0.000000e+00
3.327571e+03,0.000000e+00
3.339142e+03,0.000000e+00
3.350713e+03,0.000000e+00
3.362284e+03,0.000000e+00
3.373854e+03,0.000000e+00
3.385425e+03,0.000000e+00
3.396996e+03,0.000000e+00
3.408567e+03,0.000000e+00
3.420138e+03,0.000000e+00
3.431708e+03,0.000000e+00
3.443279e+03,0.000000e+00
3.454850e+03,0.000000e+00
3.466421e+03,0.000000e+00
3.477992e+03,0.000000e+00
3.489563e+03,0.000000e+00
3.500169e+03,0.000000e+00

File: blue fibre15.CSV
9.931763e+01,0.000000e+00
1.108884e+02,0.000000e+00
1.224592e+02,0.000000e+00
1.340300e+02,0.000000e+00
1.456008e+02,0.000000e+00
1.571716e+02,0.000000e+00
1.687424e+02,0.000000e+00
1.803132e+02,0.000000e+00
1.918840e+02,0.000000e+00
2.034548e+02,3.797431e+03
2.150256e+02,3.818136e+03
2.265964e+02,3.851778e+03
2.381673e+02,3.911789e+03
2.497381e+02,3.961969e+03
2.613088e+02,4.006958e+03
2.728796e+02,4.053903e+03
2.844504e+02,4.100211e+03
2.960212e+02,4.090153e+03
3.075920e+02,4.103236e+03
3.191628e+02,4.125270e+03
3.307336e+02,4.158766e+03
3.423044e+02,4.171765e+03
3.538752e+02,4.179024e+03
3.654461e+02,4.197926e+03
3.770169e+02,4.238443e+03
3.885877e+02,4.237375e+03
4.001585e+02,4.233692e+03
4.117293e+02,4.238077e+03
4.233001e+02,4.253558e+03
4.348709e+02,4.265188e+03
4.464417e+02,4.259161e+03
4.580125e+02,4.267403e+03
4.695833e+02,4.272315e+03
4.811541e+02,4.279011e+03
4.927249e+02,4.304085e+03
5.042957e+02,4.289396e+03
5.158665e+02,4.297372e+03
5.274373e+02,4.309996e+03
5.390081e+02,4.334088e+03
5.505789e+02,4.365943e+03
5.621497e+02,4.357816e+03
5.737205e+02,4.265156e+03
5.852913e+02,4.251708e+03
5.968621e+02,4.286890e+03
6.084329e+02,4.323231e+03
6.200037e+02,4.244191e+03
6.315745e+02,4.223898e+03
6.431453e+02,4.190314e+03
6.547161e+02,4.199122e+03
6.662869e+02,4.173752e+03
6.778577e+02,4.172683e+03
6.894285e+02,4.137310e+03
7.009993e+02,4.095575e+03
7.125701e+02,4.094018e+03
7.241409e+02,4.064067e+03
7.357117e+02,4.039805e+03
7.472825e+02,4.029446e+03
7.588533e+02,4.026326e+03
7.704241e+02,3.984986e+03
7.819949e+02,3.995316e+03
7.935657e+02,3.961939e+03
8.051365e+02,3.911434e+03
8.167073e+02,3.891140e+03
8.282781e+02,3.839820e+03
8.398489e+02,3.856138e+03
8.514197e+02,3.819260e+03
8.629905e+02,3.797082e+03
8.745613e+02,3.761964e+03
8.861321e+02,3.741320e+03
8.977029e+02,3.736678e+03
9.092737e+02,3.670079e+03
9.208445e+02,3.638215e+03
9.324153e+02,3.606982e+03
9.439861e+02,3.577647e+03
9.555569e+02,3.547147e+03
9.671277e+02,3.515052e+03
9.786985e+02,3.501322e+03
9.902693e+02,3.463223e+03
1.001840e+03,3.438270e+03
1.013411e+03,3.398981e+03
1.024982e+03,3.371257e+03
1.036552e+03,3.357215e+03
1.048123e+03,3.316439e+03
1.059694e+03,3.311083e+03
1.071265e+03,3.305596e+03
1.082836e+03,3.297431e+03
1.094406e+03,3.246285e+03
1.105977e+03,3.204853e+03
1.117548e+03,3.191185e+03
1.129119e+03,3.144070e+03
1.140690e+03,3.115869e+03
1.152261e+03,3.101238e+03
1.163831e+03,3.072927e+03
1.175402e+03,3.031976e+03
1.186973e+03,3.016784e+03
1.198544e+03,2.996109e+03
1.210115e+03,2.963034e+03
1.221685e+03,2.952581e+03
1.233256e+03,2.905665e+03
1.244827e+03,2.899652e+03
1.256398e+03,2.865315e+03
1.267969e+03,2.833353e+03
1.279539e+03,2.806461e+03
1.291110e+03,2.779580e+03
1.302681e+03,2.746739e+03
1.314252e+03,2.737163e+03
1.325823e+03,2.743878e+03
1.337393e+03,2.729072e+03
1.348964e+03,2.685755e+03
1.360535e+03,2.660731e+03
1.372106e+03,2.640385e+03
1.383677e+03,2.618490e+03
1.395247e+03,2.594353e+03
1.406818e+03,2.569147e+03
1.418389e+03,2.546604e+03
1.429960e+03,2.537084e+03
1.441531e+03,2.515108e+03
1.453101e+03,2.512194e+03
1.464672e+03,2.470815e+03
1.476243e+03,2.461334e+03
1.487814e+03,2.424087e+03
1.499385e+03,2.427665e+03
1.510955e+03,2.408573e+03
1.522526e+03,2.373679e+03
1.534097e+03,2.356043e+03
1.545668e+03,2.338542e+03
1.557239e+03,2.345118e+03
1.568809e+03,2.404661e+03
1.580380e+03,2.342967e+03
1.591951e+03,2.270692e+03
1.603522e+03,2.274510e+03
1.615093e+03,2.235059e+03
1.626663e+03,2.233358e+03
1.638234e+03,2.194228e+03
1.649805e+03,2.164228e+03
1.661376e+03,2.154309e+03
1.672947e+03,2.137715e+03
1.684517e+03,2.112931e+03
1.696088e+03,2.101290e+03
1.707659e+03,2.093061e+03
1.719230e+03,2.060992e+03
1.730801e+03,2.039581e+03
1.742371e+03,2.031576e+03
1.753942e+03,2.030128e+03
1.765513e+03,1.998986e+03
1.777084e+03,1.987136e+03
1.788655e+03,1.958670e+03
1.800225e+03,1.947909e+03
1.811796e+03,1.909617e+03
1.823367e+03,1.919701e+03
1.834938e+03,1.899219e+03
1.846509e+03,1.884819e+03
1.858079e+03,1.857727e+03
1.869650e+03,1.842510e+03
1.881221e+03,1.813575e+03
1.892792e+03,1.790788e+03
1.904363e+03,1.783918e+03
1.915933e+03,1.760988e+03
1.927504e+03,1.747636e+03
1.939075e+03,1.721872e+03
1.950646e+03,1.704721e+03
1.962217e+03,1.697668e+03
1.973787e+03,1.673574e+03
1.985358e+03,1.644701e+03
1.996929e+03,1.639464e+03
2.008500e+03,1.629506e+03
2.020071e+03,1.594855e+03
2.031641e+03,1.589438e+03
2.043212e+03,1.557821e+03
2.054783e+03,1.539083e+03
2.066354e+03,1.536965e+03
2.077925e+03,1.506423e+03
2.089496e+03,1.506952e+03
2.101066e+03,1.493422e+03
2.112637e+03,1.457341e+03
2.124208e+03,1.458892e+03
2.135779e+03,1.435079e+03
2.147350e+03,1.394242e+03
2.158920e+03,1.387897e+03
2.170491e+03,1.394760e+03
2.182062e+03,1.348630e+03
2.193633e+03,1.334489e+03
2.205204e+03,1.334459e+03
2.216774e+03,1.311647e+03
2.228345e+03,1.304969e+03
2.239916e+03,1.276555e+03
2.251487e+03,1.254359e+03
2.263058e+03,1.255470e+03
2.274628e+03,1.218620e+03
2.286199e+03,1.180517e+03
2.297770e+03,1.200091e+03
2.309341e+03,1.185018e+03
2.320912e+03,1.149846e+03
2.332482e+03,1.151766e+03
2.344053e+03,1.141765e+03
2.355624e+03,1.103415e+03
2.367195e+03,1.093874e+03
2.378766e+03,1.093639e+03
2.390336e+03,1.075539e+03
2.401907e+03,1.054558e+03
2.413478e+03,1.051959e+03
2.425049e+03,1.022791e+03
2.436620e+03,1.023482e+03
2.448190e+03,1.010360e+03
2.459761e+03,9.996199e+02
2.471332e+03,9.724234e+02
2.482903e+03,9.693655e+02
2.494474e+03,9.399276e+02
2.506044e+03,9.411913e+02
2.517615e+03,9.371061e+02
2.529186e+03,9.147256e+02
2.540757e+03,8.950974e+02
2.552328e+03,9.056184e+02
2.563898e+03,9.055964e+02
2.575469e+03,8.784922e+02
2.587040e+03,8.609464e+02
2.598611e+03,8.662560e+02
2.610182e+03,8.574207e+02
2.621752e+03,8.404279e+02
2.633323e+03,8.257167e+02
2.644894e+03,8.314196e+02
2.656465e+03,8.118162e+02
2.668036e+03,8.127423e+02
2.679606e+03,7.844219e+02
2.691177e+03,7.870335e+02
2.702748e+03,7.650068e+02
2.714319e+03,7.724939e+02
2.725890e+03,7.782864e+02
2.737460e+03,7.495291e+02
2.749031e+03,7.477040e+02
2.760602e+03,7.454615e+02
2.772173e+03,7.387019e+02
2.783744e+03,7.284041e+02
2.795314e+03,7.332490e+02
2.806885e+03,7.207269e+02
2.818456e+03,7.199991e+02
2.830027e+03,7.109802e+02
2.841598e+03,6.897664e+02
2.853168e+03,6.893612e+02
2.864739e+03,6.870783e+02
2.876310e+03,6.814804e+02
2.887881e+03,6.926131e+02
2.899452e+03,6.910107e+02
2.911022e+03,6.832390e+02
2.922593e+03,6.570023e+02
2.934164e+03,6.823227e+02
2.945735e+03,6.478557e+02
2.957306e+03,6.981041e+02
2.968876e+03,6.418079e+02
2.980447e+03,6.483359e+02
2.992018e+03,6.265885e+02
3.003589e+03,6.114016e+02
3.015160e+03,6.270511e+02
3.026730e+03,5.988141e+02
3.038301e+03,6.198663e+02
3.049872e+03,5.864662e+02
3.061443e+03,6.108385e+02
3.073014e+03,5.983602e+02
3.084584e+03,6.078935e+02
3.096155e+03,5.769705e+02
3.107726e+03,5.786443e+02
3.119297e+03,5.963342e+02
3.130868e+03,6.196978e+02
3.142438e+03,6.349070e+02
3.154009e+03,5.934557e+02
3.165580e+03,5.932323e+02
3.177151e+03,6.270286e+02
3.188722e+03,6.105193e+02
3.200292e+03,6.380408e+02
3.211863e+03,0.000000e+00
3.223434e+03,0.000000e+00
3.235005e+03,0.000000e+00
3.246576e+03,0.000000e+00
3.258146e+03,0.000000e+00
3.269717e+03,0.000000e+00
3.281288e+03,0.000000e+00
3.292859e+03,0.000000e+00
3.304430e+03,0.000000e+00
3.316000e+03,0.000000e+00
3.327571e+03,0.000000e+00
3.339142e+03,0.000000e+00
3.350713e+03,0.000000e+00
3.362284e+03,0.000000e+00
3.373854e+03,0.000000e+00
3.385425e+03,0.000000e+00
3.396996e+03,0.000000e+00
3.408567e+03,0.000000e+00
3.420138e+03,0.000000e+00
3.431708e+03,0.000000e+00
3.443279e+03,0.000000e+00
3.454850e+03,0.000000e+00
3.466421e+03,0.000000e+00
3.477992e+03,0.000000e+00
3.489563e+03,0.000000e+00
3.500169e+03,0.000000e+00

File: blue fibre16.CSV
9.931763e+01,0.000000e+00
1.108884e+02,0.000000e+00
1.224592e+02,0.000000e+00
1.340300e+02,0.000000e+00
1.456008e+02,0.000000e+00
1.571716e+02,0.000000e+00
1.687424e+02,0.000000e+00
1.803132e+02,0.000000e+00
1.918840e+02,0.000000e+00
2.034548e+02,3.615559e+03
2.150256e+02,3.666109e+03
2.265964e+02,3.691565e+03
2.381673e+02,3.760849e+03
2.497381e+02,3.819497e+03
2.613088e+02,3.840150e+03
2.728796e+02,3.931861e+03
2.844504e+02,3.977749e+03
2.960212e+02,3.964927e+03
3.075920e+02,3.971085e+03
3.191628e+02,4.014591e+03
3.307336e+02,4.033030e+03
3.423044e+02,4.047494e+03
3.538752e+02,4.073524e+03
3.654461e+02,4.099795e+03
3.770169e+02,4.158524e+03
3.885877e+02,4.159713e+03
4.001585e+02,4.153282e+03
4.117293e+02,4.168472e+03
4.233001e+02,4.159899e+03
4.348709e+02,4.192194e+03
4.464417e+02,4.201249e+03
4.580125e+02,4.208577e+03
4.695833e+02,4.200745e+03
4.811541e+02,4.201242e+03
4.927249e+02,4.212510e+03
5.042957e+02,4.236131e+03
5.158665e+02,4.235435e+03
5.274373e+02,4.220233e+03
5.390081e+02,4.300350e+03
5.505789e+02,4.288339e+03
5.621497e+02,4.290962e+03
5.737205e+02,4.229539e+03
5.852913e+02,4.221079e+03
5.968621e+02,4.239239e+03
6.084329e+02,4.294829e+03
6.200037e+02,4.201846e+03
6.315745e+02,4.187944e+03
6.431453e+02,4.167128e+03
6.547161e+02,4.128972e+03
6.662869e+02,4.114757e+03
6.778577e+02,4.095175e+03
6.894285e+02,4.085094e+03
7.009993e+02,4.037208e+03
7.125701e+02,4.020043e+03
7.241409e+02,4.003403e+03
7.357117e+02,3.986311e+03
7.472825e+02,3.958085e+03
7.588533e+02,3.947572e+03
7.704241e+02,3.924596e+03
7.819949e+02,3.897230e+03
7.935657e+02,3.901543e+03
8.051365e+02,3.842995e+03
8.167073e+02,3.794529e+03
8.282781e+02,3.798042e+03
8.398489e+02,3.764174e+03
8.514197e+02,3.742936e+03
8.629905e+02,3.713247e+03
8.745613e+02,3.702953e+03
8.861321e+02,3.693562e+03
8.977029e+02,3.626714e+03
9.092737e+02,3.579305e+03
9.208445e+02,3.546400e+03
9.324153e+02,3.507727e+03
9.439861e+02,3.493051e+03
9.555569e+02,3.464429e+03
9.671277e+02,3.432292e+03
9.786985e+02,3.406123e+03
9.902693e+02,3.361261e+03
1.001840e+03,3.331526e+03
1.013411e+03,3.300187e+03
1.024982e+03,3.263503e+03
1.036552e+03,3.260493e+03
1.048123e+03,3.221491e+03
1.059694e+03,3.195383e+03
1.071265e+03,3.202877e+03
1.082836e+03,3.201298e+03
1.094406e+03,3.133564e+03
1.105977e+03,3.086534e+03
1.117548e+03,3.091615e+03
1.129119e+03,3.020289e+03
1.140690e+03,3.008539e+03
1.152261e+03,2.973333e+03
1.163831e+03,2.939390e+03
1.175402e+03,2.901772e+03
1.186973e+03,2.872429e+03
1.198544e+03,2.871503e+03
1.210115e+03,2.824974e+03
1.221685e+03,2.820319e+03
1.233256e+03,2.761930e+03
1.244827e+03,2.758615e+03
1.256398e+03,2.716854e+03
1.267969e+03,2.675188e+03
1.279539e+03,2.671870e+03
1.291110e+03,2.645588e+03
1.302681e+03,2.619183e+03
1.314252e+03,2.607194e+03
1.325823e+03,2.595514e+03
1.337393e+03,2.569711e+03
1.348964e+03,2.544353e+03
1.360535e+03,2.509368e+03
1.372106e+03,2.502103e+03
1.383677e+03,2.464451e+03
1.395247e+03,2.446445e+03
1.406818e+03,2.403644e+03
1.418389e+03,2.397583e+03
1.429960e+03,2.369025e+03
1.441531e+03,2.362953e+03
1.453101e+03,2.366823e+03
1.464672e+03,2.329970e+03
1.476243e+03,2.320627e+03
1.487814e+03,2.290036e+03
1.499385e+03,2.259673e+03
1.510955e+03,2.259355e+03
1.522526e+03,2.220479e+03
1.534097e+03,2.223373e+03
1.545668e+03,2.183295e+03
1.557239e+03,2.173600e+03
1.568809e+03,2.291469e+03
1.580380e+03,2.213278e+03
1.591951e+03,2.135587e+03
1.603522e+03,2.117143e+03
1.615093e+03,2.101260e+03
1.626663e+03,2.095959e+03
1.638234e+03,2.052568e+03
1.649805e+03,2.045960e+03
1.661376e+03,2.013507e+03
1.672947e+03,2.002796e+03
1.684517e+03,1.991425e+03
1.696088e+03,1.973334e+03
1.707659e+03,1.952394e+03
1.719230e+03,1.929984e+03
1.730801e+03,1.918094e+03
1.742371e+03,1.894324e+03
1.753942e+03,1.879940e+03
1.765513e+03,1.865648e+03
1.777084e+03,1.840837e+03
1.788655e+03,1.815015e+03
1.800225e+03,1.799366e+03
1.811796e+03,1.796280e+03
1.823367e+03,1.767880e+03
1.834938e+03,1.767284e+03
1.846509e+03,1.767116e+03
1.858079e+03,1.739071e+03
1.869650e+03,1.715522e+03
1.881221e+03,1.693682e+03
1.892792e+03,1.682152e+03
1.904363e+03,1.662819e+03
1.915933e+03,1.628136e+03
1.927504e+03,1.622293e+03
1.939075e+03,1.607183e+03
1.950646e+03,1.582741e+03
1.962217e+03,1.590129e+03
1.973787e+03,1.559112e+03
1.985358e+03,1.551755e+03
1.996929e+03,1.516750e+03
2.008500e+03,1.509041e+03
2.020071e+03,1.501769e+03
2.031641e+03,1.490589e+03
2.043212e+03,1.452162e+03
2.054783e+03,1.447021e+03
2.066354e+03,1.428080e+03
2.077925e+03,1.396830e+03
2.089496e+03,1.391441e+03
2.101066e+03,1.381889e+03
2.112637e+03,1.358256e+03
2.124208e+03,1.339786e+03
2.135779e+03,1.318395e+03
2.147350e+03,1.294324e+03
2.158920e+03,1.283424e+03
2.170491e+03,1.271529e+03
2.182062e+03,1.244611e+03
2.193633e+03,1.232784e+03
2.205204e+03,1.219505e+03
2.216774e+03,1.194747e+03
2.228345e+03,1.183876e+03
2.239916e+03,1.169060e+03
2.251487e+03,1.158801e+03
2.263058e+03,1.133282e+03
2.274628e+03,1.133315e+03
2.286199e+03,1.105797e+03
2.297770e+03,1.108258e+03
2.309341e+03,1.084239e+03
2.320912e+03,1.061826e+03
2.332482e+03,1.056500e+03
2.344053e+03,1.033748e+03
2.355624e+03,1.022529e+03
2.367195e+03,1.028197e+03
2.378766e+03,9.911937e+02
2.390336e+03,9.896152e+02
2.401907e+03,9.563214e+02
2.413478e+03,9.492732e+02
2.425049e+03,9.426461e+02
2.436620e+03,9.255206e+02
2.448190e+03,9.276783e+02
2.459761e+03,9.022504e+02
2.471332e+03,8.939880e+02
2.482903e+03,8.824660e+02
2.494474e+03,8.843817e+02
2.506044e+03,8.575431e+02
2.517615e+03,8.527832e+02
2.529186e+03,8.386746e+02
2.540757e+03,8.282247e+02
2.552328e+03,8.311108e+02
2.563898e+03,8.213405e+02
2.575469e+03,8.089014e+02
2.587040e+03,7.999739e+02
2.598611e+03,7.812561e+02
2.610182e+03,7.686577e+02
2.621752e+03,7.729522e+02
2.633323e+03,7.588724e+02
2.644894e+03,7.426258e+02
2.656465e+03,7.480983e+02
2.668036e+03,7.452860e+02
2.679606e+03,7.253063e+02
2.691177e+03,7.124583e+02
2.702748e+03,7.069207e+02
2.714319e+03,6.959171e+02
2.725890e+03,6.831547e+02
2.737460e+03,6.748046e+02
2.749031e+03,6.817291e+02
2.760602e+03,6.797279e+02
2.772173e+03,6.687097e+02
2.783744e+03,6.831540e+02
2.795314e+03,6.493450e+02
2.806885e+03,6.537863e+02
2.818456e+03,6.313973e+02
2.830027e+03,6.299091e+02
2.841598e+03,6.257670e+02
2.853168e+03,6.273257e+02
2.864739e+03,6.117927e+02
2.876310e+03,6.325453e+02
2.887881e+03,6.384527e+02
2.899452e+03,6.179684e+02
2.911022e+03,6.099779e+02
2.922593e+03,6.197785e+02
2.934164e+03,6.095372e+02
2.945735e+03,5.757736e+02
2.957306e+03,6.437022e+02
2.968876e+03,5.830333e+02
2.980447e+03,5.756618e+02
2.992018e+03,5.440359e+02
3.003589e+03,5.435552e+02
3.015160e+03,5.611404e+02
3.026730e+03,5.536904e+02
3.038301e+03,5.577625e+02
3.049872e+03,5.476245e+02
3.061443e+03,5.568299e+02
3.073014e+03,5.194568e+02
3.084584e+03,5.410974e+02
3.096155e+03,5.564387e+02
3.107726e+03,5.544058e+02
3.119297e+03,5.093890e+02
3.130868e+03,5.572631e+02
3.142438e+03,5.509724e+02
3.154009e+03,5.523519e+02
3.165580e+03,5.529218e+02
3.177151e+03,5.666154e+02
3.188722e+03,5.215055e+02
3.200292e+03,5.780055e+02
3.211863e+03,0.000000e+00
3.223434e+03,0.000000e+00
3.235005e+03,0.000000e+00
3.246576e+03,0.000000e+00
3.258146e+03,0.000000e+00
3.269717e+03,0.000000e+00
3.281288e+03,0.000000e+00
3.292859e+03,0.000000e+00
3.304430e+03,0.000000e+00
3.316000e+03,0.000000e+00
3.327571e+03,0.000000e+00
3.339142e+03,0.000000e+00
3.350713e+03,0.000000e+00
3.362284e+03,0.000000e+00
3.373854e+03,0.000000e+00
3.385425e+03,0.000000e+00
3.396996e+03,0.000000e+00
3.408567e+03,0.000000e+00
3.420138e+03,0.000000e+00
3.431708e+03,0.000000e+00
3.443279e+03,0.000000e+00
3.454850e+03,0.000000e+00
3.466421e+03,0.000000e+00
3.477992e+03,0.000000e+00
3.489563e+03,0.000000e+00
3.500169e+03,0.000000e+00