Folder: Taff_Bargoed_microplastics_data/RAMAN_data/23052023_r1

Note: README.md
# Taff_Bargoed_microplastics_data

File: black fibre1.CSV
9.931763e+01,0.000000e+00
1.108884e+02,0.000000e+00
1.224592e+02,0.000000e+00
1.340300e+02,0.000000e+00
1.456008e+02,0.000000e+00
1.571716e+02,0.000000e+00
1.687424e+02,0.000000e+00
1.803132e+02,0.000000e+00
1.918840e+02,0.000000e+00
2.034548e+02,9.826104e+02
2.150256e+02,9.733256e+02
2.265964e+02,9.789692e+02
2.381673e+02,9.894101e+02
2.497381e+02,9.880078e+02
2.613088e+02,9.908504e+02
2.728796e+02,9.932501e+02
2.844504e+02,9.956300e+02
2.960212e+02,1.002506e+03
3.075920e+02,1.011164e+03
3.191628e+02,1.016872e+03
3.307336e+02,1.007542e+03
3.423044e+02,1.018067e+03
3.538752e+02,1.005824e+03
3.654461e+02,1.007133e+03
3.770169e+02,1.014334e+03
3.885877e+02,1.001466e+03
4.001585e+02,1.000372e+03
4.117293e+02,9.923547e+02
4.233001e+02,1.001846e+03
4.348709e+02,1.005058e+03
4.464417e+02,1.000547e+03
4.580125e+02,1.003214e+03
4.695833e+02,9.838949e+02
4.811541e+02,9.896417e+02
4.927249e+02,9.880605e+02
5.042957e+02,9.769480e+02
5.158665e+02,9.786052e+02
5.274373e+02,9.647449e+02
5.390081e+02,9.638435e+02
5.505789e+02,9.641435e+02
5.621497e+02,9.652199e+02
5.737205e+02,9.603039e+02
5.852913e+02,9.499869e+02
5.968621e+02,9.402766e+02
6.084329e+02,9.457966e+02
6.200037e+02,9.440279e+02
6.315745e+02,9.403506e+02
6.431453e+02,9.261766e+02
6.547161e+02,9.247922e+02
6.662869e+02,9.196761e+02
6.778577e+02,9.116058e+02
6.894285e+02,9.116566e+02
7.009993e+02,9.122875e+02
7.125701e+02,8.984969e+02
7.241409e+02,8.917483e+02
7.357117e+02,8.919313e+02
7.472825e+02,8.811746e+02
7.588533e+02,8.802227e+02
7.704241e+02,8.771270e+02
7.819949e+02,8.536877e+02
7.935657e+02,8.594427e+02
8.051365e+02,8.564085e+02
8.167073e+02,8.544774e+02
8.282781e+02,8.413830e+02
8.398489e+02,8.488574e+02
8.514197e+02,8.350940e+02
8.629905e+02,8.386412e+02
8.745613e+02,8.375810e+02
8.861321e+02,8.390410e+02
8.977029e+02,8.269445e+02
9.092737e+02,8.115355e+02
9.208445e+02,8.035579e+02
9.324153e+02,7.949964e+02
9.439861e+02,7.893870e+02
9.555569e+02,7.891148e+02
9.671277e+02,7.977155e+02
9.786985e+02,7.805746e+02
9.902693e+02,7.750634e+02
1.001840e+03,7.699459e+02
1.013411e+03,7.668067e+02
1.024982e+03,7.740976e+02
1.036552e+03,7.685007e+02
1.048123e+03,7.688910e+02
1.059694e+03,7.597253e+02
1.071265e+03,7.507692e+02
1.082836e+03,7.558145e+02
1.094406e+03,7.600303e+02
1.105977e+03,7.422904e+02
1.117548e+03,7.513223e+02
1.129119e+03,7.353494e+02
1.140690e+03,7.253448e+02
1.152261e+03,7.322189e+02
1.163831e+03,7.310008e+02
1.175402e+03,6.997188e+02
1.186973e+03,7.083474e+02
1.198544e+03,7.045469e+02
1.210115e+03,6.966715e+02
1.221685e+03,6.863878e+02
1.233256e+03,6.836748e+02
1.244827e+03,6.865085e+02
1.256398e+03,6.793992e+02
1.267969e+03,6.738276e+02
1.279539e+03,6.912719e+02
1.291110e+03,7.099377e+02
1.302681e+03,7.028020e+02
1.314252e+03,7.344928e+02
1.325823e+03,7.243904e+02
1.337393e+03,6.965475e+02
1.348964e+03,6.930129e+02
1.360535e+03,6.885469e+02
1.372106e+03,6.703977e+02
1.383677e+03,6.567553e+02
1.395247e+03,6.454642e+02
1.406818e+03,6.318237e+02
1.418389e+03,6.307019e+02
1.429960e+03,6.315247e+02
1.441531e+03,6.338994e+02
1.453101e+03,6.258105e+02
1.464672e+03,6.237670e+02
1.476243e+03,6.263519e+02
1.487814e+03,6.096988e+02
1.499385e+03,6.056435e+02
1.510955e+03,6.012666e+02
1.522526e+03,6.001664e+02
1.534097e+03,5.831536e+02
1.545668e+03,5.853842e+02
1.557239e+03,5.797199e+02
1.568809e+03,5.734512e+02
1.580380e+03,5.758527e+02
1.591951e+03,5.739134e+02
1.603522e+03,5.683591e+02
1.615093e+03,5.678966e+02
1.626663e+03,5.569960e+02
1.638234e+03,5.589778e+02
1.649805e+03,5.574408e+02
1.661376e+03,5.575516e+02
1.672947e+03,5.347540e+02
1.684517e+03,5.374944e+02
1.696088e+03,5.196224e+02
1.707659e+03,5.222413e+02
1.719230e+03,5.152245e+02
1.730801e+03,5.208300e+02
1.742371e+03,5.151075e+02
1.753942e+03,5.069082e+02
1.765513e+03,5.065193e+02
1.777084e+03,4.975480e+02
1.788655e+03,5.013014e+02
1.800225e+03,4.963377e+02
1.811796e+03,4.845706e+02
1.823367e+03,4.825455e+02
1.834938e+03,4.680539e+02
1.846509e+03,4.657371e+02
1.858079e+03,4.639262e+02
1.869650e+03,4.440634e+02
1.881221e+03,4.475880e+02
1.892792e+03,4.537870e+02
1.904363e+03,4.455080e+02
1.915933e+03,4.384928e+02
1.927504e+03,4.379122e+02
1.939075e+03,4.455045e+02
1.950646e+03,4.324698e+02
1.962217e+03,4.404632e+02
1.973787e+03,4.237569e+02
1.985358e+03,4.191573e+02
1.996929e+03,4.090006e+02
2.008500e+03,4.063942e+02
2.020071e+03,4.011374e+02
2.031641e+03,4.000407e+02
2.043212e+03,3.881804e+02
2.054783e+03,3.857220e+02
2.066354e+03,3.913663e+02
2.077925e+03,3.755667e+02
2.089496e+03,3.766107e+02
2.101066e+03,3.766836e+02
2.112637e+03,3.702432e+02
2.124208e+03,3.661464e+02
2.135779e+03,3.534026e+02
2.147350e+03,3.472924e+02
2.158920e+03,3.437967e+02
2.170491e+03,3.439431e+02
2.182062e+03,3.477312e+02
2.193633e+03,3.358403e+02
2.205204e+03,3.369958e+02
2.216774e+03,3.328174e+02
2.228345e+03,3.218839e+02
2.239916e+03,3.212247e+02
2.251487e+03,3.184710e+02
2.263058e+03,3.190004e+02
2.274628e+03,3.151302e+02
2.286199e+03,3.148376e+02
2.297770e+03,3.103951e+02
2.309341e+03,3.013835e+02
2.320912e+03,2.998923e+02
2.332482e+03,2.914704e+02
2.344053e+03,2.894526e+02
2.355624e+03,2.914582e+02
2.367195e+03,2.874009e+02
2.378766e+03,2.887777e+02
2.390336e+03,2.801471e+02
2.401907e+03,2.763017e+02
2.413478e+03,2.699289e+02
2.425049e+03,2.681935e+02
2.436620e+03,2.628885e+02
2.448190e+03,2.674154e+02
2.459761e+03,2.595683e+02
2.471332e+03,2.601325e+02
2.482903e+03,2.524995e+02
2.494474e+03,2.587752e+02
2.506044e+03,2.578204e+02
2.517615e+03,2.496462e+02
2.529186e+03,2.518132e+02
2.540757e+03,2.428580e+02
2.552328e+03,2.601410e+02
2.563898e+03,2.499407e+02
2.575469e+03,2.547437e+02
2.587040e+03,2.377981e+02
2.598611e+03,2.342607e+02
2.610182e+03,2.394108e+02
2.621752e+03,2.391245e+02
2.633323e+03,2.397023e+02
2.644894e+03,2.318732e+02
2.656465e+03,2.408741e+02
2.668036e+03,2.293853e+02
2.679606e+03,2.384338e+02
2.691177e+03,2.273305e+02
2.702748e+03,2.330370e+02
2.714319e+03,2.204802e+02
2.725890e+03,2.298420e+02
2.737460e+03,2.149198e+02
2.749031e+03,2.228941e+02
2.760602e+03,2.282715e+02
2.772173e+03,2.201502e+02
2.783744e+03,2.098363e+02
2.795314e+03,2.127102e+02
2.806885e+03,2.238573e+02
2.818456e+03,2.193115e+02
2.830027e+03,2.182154e+02
2.841598e+03,2.179329e+02
2.853168e+03,2.271135e+02
2.864739e+03,2.288926e+02
2.876310e+03,2.554470e+02
2.887881e+03,2.618550e+02
2.899452e+03,2.537477e+02
2.911022e+03,2.463569e+02
2.922593e+03,2.370417e+02
2.934164e+03,2.260486e+02
2.945735e+03,2.394106e+02
2.957306e+03,2.837840e+02
2.968876e+03,2.161969e+02
2.980447e+03,2.105119e+02
2.992018e+03,2.090495e+02
3.003589e+03,2.096535e+02
3.015160e+03,2.147459e+02
3.026730e+03,1.923207e+02
3.038301e+03,2.089454e+02
3.049872e+03,2.210005e+02
3.061443e+03,1.957937e+02
3.073014e+03,2.128250e+02
3.084584e+03,2.005260e+02
3.096155e+03,2.057257e+02
3.107726e+03,1.927658e+02
3.119297e+03,2.322745e+02
3.130868e+03,2.281772e+02
3.142438e+03,2.143829e+02
3.154009e+03,2.072793e+02
3.165580e+03,2.552130e+02
3.177151e+03,2.373418e+02
3.188722e+03,2.224078e+02
3.200292e+03,2.620583e+02
3.211863e+03,0.000000e+00
3.223434e+03,0.000000e+00
3.235005e+03,0.000000e+00
3.246576e+03,0.000000e+00
3.258146e+03,0.000000e+00
3.269717e+03,0.000000e+00
3.281288e+03,0.000000e+00
3.292859e+03,0.000000e+00
3.304430e+03,0.000000e+00
3.316000e+03,0.000000e+00
3.327571e+03,0.000000e+00
3.339142e+03,0.000000e+00
3.350713e+03,0.000000e+00
3.362284e+03,0.000000e+00
3.373854e+03,0.000000e+00
3.385425e+03,0.000000e+00
3.396996e+03,0.000000e+00
3.408567e+03,0.000000e+00
3.420138e+03,0.000000e+00
3.431708e+03,0.000000e+00
3.443279e+03,0.000000e+00
3.454850e+03,0.000000e+00
3.466421e+03,0.000000e+00
3.477992e+03,0.000000e+00
3.489563e+03,0.000000e+00
3.500169e+03,0.000000e+00

File: black fibre2.CSV
9.931763e+01,0.000000e+00
1.108884e+02,0.000000e+00
1.224592e+02,0.000000e+00
1.340300e+02,0.000000e+00
1.456008e+02,0.000000e+00
1.571716e+02,0.000000e+00
1.687424e+02,0.000000e+00
1.803132e+02,0.000000e+00
1.918840e+02,0.000000e+00
2.034548e+02,9.669276e+02
2.150256e+02,9.753002e+02
2.265964e+02,9.698126e+02
2.381673e+02,9.735753e+02
2.497381e+02,9.702689e+02
2.613088e+02,9.755237e+02
2.728796e+02,9.792930e+02
2.844504e+02,9.839445e+02
2.960212e+02,9.834530e+02
3.075920e+02,9.793962e+02
3.191628e+02,9.866564e+02
3.307336e+02,9.941985e+02
3.423044e+02,9.962000e+02
3.538752e+02,9.930583e+02
3.654461e+02,9.917607e+02
3.770169e+02,1.009188e+03
3.885877e+02,9.976438e+02
4.001585e+02,9.840038e+02
4.117293e+02,9.888041e+02
4.233001e+02,9.858092e+02
4.348709e+02,9.858714e+02
4.464417e+02,9.815291e+02
4.580125e+02,9.813294e+02
4.695833e+02,9.668824e+02
4.811541e+02,9.585844e+02
4.927249e+02,9.622620e+02
5.042957e+02,9.611194e+02
5.158665e+02,9.615525e+02
5.274373e+02,9.602254e+02
5.390081e+02,9.527844e+02
5.505789e+02,9.539198e+02
5.621497e+02,9.466734e+02
5.737205e+02,9.376393e+02
5.852913e+02,9.265445e+02
5.968621e+02,9.413919e+02
6.084329e+02,9.334736e+02
6.200037e+02,9.276580e+02
6.315745e+02,9.189773e+02
6.431453e+02,9.142029e+02
6.547161e+02,9.088409e+02
6.662869e+02,9.146980e+02
6.778577e+02,9.056691e+02
6.894285e+02,9.020362e+02
7.009993e+02,8.924391e+02
7.125701e+02,8.981647e+02
7.241409e+02,8.862853e+02
7.357117e+02,8.833656e+02
7.472825e+02,8.829974e+02
7.588533e+02,8.725804e+02
7.704241e+02,8.534700e+02
7.819949e+02,8.510427e+02
7.935657e+02,8.467732e+02
8.051365e+02,8.485751e+02
8.167073e+02,8.503879e+02
8.282781e+02,8.374075e+02
8.398489e+02,8.373560e+02
8.514197e+02,8.231312e+02
8.629905e+02,8.262430e+02
8.745613e+02,8.400477e+02
8.861321e+02,8.263209e+02
8.977029e+02,8.193178e+02
9.092737e+02,8.030800e+02
9.208445e+02,8.035145e+02
9.324153e+02,7.844896e+02
9.439861e+02,7.799919e+02
9.555569e+02,7.750274e+02
9.671277e+02,7.765987e+02
9.786985e+02,7.672849e+02
9.902693e+02,7.684174e+02
1.001840e+03,7.663170e+02
1.013411e+03,7.636963e+02
1.024982e+03,7.622848e+02
1.036552e+03,7.626573e+02
1.048123e+03,7.569464e+02
1.059694e+03,7.469872e+02
1.071265e+03,7.378052e+02
1.082836e+03,7.566730e+02
1.094406e+03,7.549227e+02
1.105977e+03,7.366437e+02
1.117548e+03,7.429081e+02
1.129119e+03,7.282617e+02
1.140690e+03,7.370923e+02
1.152261e+03,7.313832e+02
1.163831e+03,7.127875e+02
1.175402e+03,7.047404e+02
1.186973e+03,7.026243e+02
1.198544e+03,6.988561e+02
1.210115e+03,6.911100e+02
1.221685e+03,6.849380e+02
1.233256e+03,6.768033e+02
1.244827e+03,6.833066e+02
1.256398e+03,6.768011e+02
1.267969e+03,6.724437e+02
1.279539e+03,6.880723e+02
1.291110e+03,7.121786e+02
1.302681e+03,7.018191e+02
1.314252e+03,7.566638e+02
1.325823e+03,7.316489e+02
1.337393e+03,7.063201e+02
1.348964e+03,6.820555e+02
1.360535e+03,6.978377e+02
1.372106e+03,6.779248e+02
1.383677e+03,6.617064e+02
1.395247e+03,6.448881e+02
1.406818e+03,6.369880e+02
1.418389e+03,6.283876e+02
1.429960e+03,6.255769e+02
1.441531e+03,6.200994e+02
1.453101e+03,6.175930e+02
1.464672e+03,6.193701e+02
1.476243e+03,6.213627e+02
1.487814e+03,6.154753e+02
1.499385e+03,6.063395e+02
1.510955e+03,5.976746e+02
1.522526e+03,5.906955e+02
1.534097e+03,5.857230e+02
1.545668e+03,5.776562e+02
1.557239e+03,5.726791e+02
1.568809e+03,5.834514e+02
1.580380e+03,5.683546e+02
1.591951e+03,5.639587e+02
1.603522e+03,5.625082e+02
1.615093e+03,5.613065e+02
1.626663e+03,5.616731e+02
1.638234e+03,5.555623e+02
1.649805e+03,5.467752e+02
1.661376e+03,5.487687e+02
1.672947e+03,5.383610e+02
1.684517e+03,5.304059e+02
1.696088e+03,5.217148e+02
1.707659e+03,5.267327e+02
1.719230e+03,5.037421e+02
1.730801e+03,5.190226e+02
1.742371e+03,5.071262e+02
1.753942e+03,5.065473e+02
1.765513e+03,5.013497e+02
1.777084e+03,4.985569e+02
1.788655e+03,4.949773e+02
1.800225e+03,4.958447e+02
1.811796e+03,4.870436e+02
1.823367e+03,4.735706e+02
1.834938e+03,4.673771e+02
1.846509e+03,4.612530e+02
1.858079e+03,4.600174e+02
1.869650e+03,4.580110e+02
1.881221e+03,4.455293e+02
1.892792e+03,4.447422e+02
1.904363e+03,4.399950e+02
1.915933e+03,4.451053e+02
1.927504e+03,4.360626e+02
1.939075e+03,4.303448e+02
1.950646e+03,4.303655e+02
1.962217e+03,4.272782e+02
1.973787e+03,4.128225e+02
1.985358e+03,4.149575e+02
1.996929e+03,4.097481e+02
2.008500e+03,3.966223e+02
2.020071e+03,3.970899e+02
2.031641e+03,3.906256e+02
2.043212e+03,3.919228e+02
2.054783e+03,3.784098e+02
2.066354e+03,3.873343e+02
2.077925e+03,3.794811e+02
2.089496e+03,3.747567e+02
2.101066e+03,3.671621e+02
2.112637e+03,3.716665e+02
2.124208e+03,3.671978e+02
2.135779e+03,3.705511e+02
2.147350e+03,3.491991e+02
2.158920e+03,3.446700e+02
2.170491e+03,3.476557e+02
2.182062e+03,3.437749e+02
2.193633e+03,3.282218e+02
2.205204e+03,3.317160e+02
2.216774e+03,3.280079e+02
2.228345e+03,3.318128e+02
2.239916e+03,3.252682e+02
2.251487e+03,3.314102e+02
2.263058e+03,3.144275e+02
2.274628e+03,3.062231e+02
2.286199e+03,3.029103e+02
2.297770e+03,3.065844e+02
2.309341e+03,3.045732e+02
2.320912e+03,2.993219e+02
2.332482e+03,2.927161e+02
2.344053e+03,2.901570e+02
2.355624e+03,2.840340e+02
2.367195e+03,2.829483e+02
2.378766e+03,2.841670e+02
2.390336e+03,2.788462e+02
2.401907e+03,2.805840e+02
2.413478e+03,2.709286e+02
2.425049e+03,2.753794e+02
2.436620e+03,2.719244e+02
2.448190e+03,2.683338e+02
2.459761e+03,2.718938e+02
2.471332e+03,2.575716e+02
2.482903e+03,2.588438e+02
2.494474e+03,2.582718e+02
2.506044e+03,2.471072e+02
2.517615e+03,2.504443e+02
2.529186e+03,2.476750e+02
2.540757e+03,2.517410e+02
2.552328e+03,2.569309e+02
2.563898e+03,2.550115e+02
2.575469e+03,2.562542e+02
2.587040e+03,2.341447e+02
2.598611e+03,2.340367e+02
2.610182e+03,2.401078e+02
2.621752e+03,2.358957e+02
2.633323e+03,2.337485e+02
2.644894e+03,2.289693e+02
2.656465e+03,2.399673e+02
2.668036e+03,2.289211e+02
2.679606e+03,2.267135e+02
2.691177e+03,2.301701e+02
2.702748e+03,2.266013e+02
2.714319e+03,2.206267e+02
2.725890e+03,2.264492e+02
2.737460e+03,2.215393e+02
2.749031e+03,2.235483e+02
2.760602e+03,2.150808e+02
2.772173e+03,2.246696e+02
2.783744e+03,2.115841e+02
2.795314e+03,2.144247e+02
2.806885e+03,2.257109e+02
2.818456e+03,2.178612e+02
2.830027e+03,2.170904e+02
2.841598e+03,2.263364e+02
2.853168e+03,2.277982e+02
2.864739e+03,2.399440e+02
2.876310e+03,2.363168e+02
2.887881e+03,2.525858e+02
2.899452e+03,2.604623e+02
2.911022e+03,2.560162e+02
2.922593e+03,2.447986e+02
2.934164e+03,2.386779e+02
2.945735e+03,2.338054e+02
2.957306e+03,2.867637e+02
2.968876e+03,2.158016e+02
2.980447e+03,2.232908e+02
2.992018e+03,2.146065e+02
3.003589e+03,2.076234e+02
3.015160e+03,2.273678e+02
3.026730e+03,1.960986e+02
3.038301e+03,2.219446e+02
3.049872e+03,2.179326e+02
3.061443e+03,2.112940e+02
3.073014e+03,2.219791e+02
3.084584e+03,2.221968e+02
3.096155e+03,2.236469e+02
3.107726e+03,1.908283e+02
3.119297e+03,2.286815e+02
3.130868e+03,2.354938e+02
3.142438e+03,2.414031e+02
3.154009e+03,2.199450e+02
3.165580e+03,2.301473e+02
3.177151e+03,2.408046e+02
3.188722e+03,2.561796e+02
3.200292e+03,2.732232e+02
3.211863e+03,0.000000e+00
3.223434e+03,0.000000e+00
3.235005e+03,0.000000e+00
3.246576e+03,0.000000e+00
3.258146e+03,0.000000e+00
3.269717e+03,0.000000e+00
3.281288e+03,0.000000e+00
3.292859e+03,0.000000e+00
3.304430e+03,0.000000e+00
3.316000e+03,0.000000e+00
3.327571e+03,0.000000e+00
3.339142e+03,0.000000e+00
3.350713e+03,0.000000e+00
3.362284e+03,0.000000e+00
3.373854e+03,0.000000e+00
3.385425e+03,0.000000e+00
3.396996e+03,0.000000e+00
3.408567e+03,0.000000e+00
3.420138e+03,0.000000e+00
3.431708e+03,0.000000e+00
3.443279e+03,0.000000e+00
3.454850e+03,0.000000e+00
3.466421e+03,0.000000e+00
3.477992e+03,0.000000e+00
3.489563e+03,0.000000e+00
3.500169e+03,0.000000e+00

File: blue fibre1.CSV
9.931763e+01,0.000000e+00
1.108884e+02,0.000000e+00
1.224592e+02,0.000000e+00
1.340300e+02,0.000000e+00
1.456008e+02,0.000000e+00
1.571716e+02,0.000000e+00
1.687424e+02,0.000000e+00
1.803132e+02,0.000000e+00
1.918840e+02,0.000000e+00
2.034548e+02,5.211300e+03
2.150256e+02,5.238067e+03
2.265964e+02,5.312978e+03
2.381673e+02,5.417618e+03
2.497381e+02,5.529904e+03
2.613088e+02,5.567325e+03
2.728796e+02,5.694952e+03
2.844504e+02,5.731216e+03
2.960212e+02,5.676900e+03
3.075920e+02,5.712298e+03
3.191628e+02,5.755683e+03
3.307336e+02,5.796044e+03
3.423044e+02,5.842517e+03
3.538752e+02,5.854200e+03
3.654461e+02,5.878452e+03
3.770169e+02,5.946144e+03
3.885877e+02,5.946602e+03
4.001585e+02,5.936114e+03
4.117293e+02,5.978854e+03
4.233001e+02,5.986464e+03
4.348709e+02,5.992981e+03
4.464417e+02,6.008021e+03
4.580125e+02,6.020063e+03
4.695833e+02,6.035815e+03
4.811541e+02,6.053705e+03
4.927249e+02,6.037542e+03
5.042957e+02,6.064260e+03
5.158665e+02,6.096575e+03
5.274373e+02,6.097822e+03
5.390081e+02,6.233824e+03
5.505789e+02,6.248142e+03
5.621497e+02,6.207360e+03
5.737205e+02,6.054415e+03
5.852913e+02,6.074850e+03
5.968621e+02,6.095231e+03
6.084329e+02,6.164510e+03
6.200037e+02,6.021768e+03
6.315745e+02,5.999491e+03
6.431453e+02,5.946851e+03
6.547161e+02,5.933049e+03
6.662869e+02,5.892335e+03
6.778577e+02,5.867834e+03
6.894285e+02,5.797625e+03
7.009993e+02,5.805358e+03
7.125701e+02,5.774827e+03
7.241409e+02,5.727561e+03
7.357117e+02,5.686351e+03
7.472825e+02,5.694537e+03
7.588533e+02,5.659504e+03
7.704241e+02,5.617287e+03
7.819949e+02,5.619608e+03
7.935657e+02,5.552048e+03
8.051365e+02,5.480000e+03
8.167073e+02,5.438991e+03
8.282781e+02,5.417018e+03
8.398489e+02,5.376902e+03
8.514197e+02,5.323294e+03
8.629905e+02,5.300536e+03
8.745613e+02,5.268876e+03
8.861321e+02,5.226133e+03
8.977029e+02,5.183198e+03
9.092737e+02,5.105175e+03
9.208445e+02,5.053872e+03
9.324153e+02,5.014772e+03
9.439861e+02,4.992081e+03
9.555569e+02,4.920688e+03
9.671277e+02,4.901922e+03
9.786985e+02,4.825925e+03
9.902693e+02,4.796209e+03
1.001840e+03,4.738047e+03
1.013411e+03,4.724869e+03
1.024982e+03,4.667045e+03
1.036552e+03,4.621303e+03
1.048123e+03,4.583021e+03
1.059694e+03,4.521718e+03
1.071265e+03,4.556913e+03
1.082836e+03,4.536973e+03
1.094406e+03,4.440974e+03
1.105977e+03,4.401088e+03
1.117548e+03,4.363511e+03
1.129119e+03,4.286019e+03
1.140690e+03,4.269092e+03
1.152261e+03,4.239702e+03
1.163831e+03,4.196726e+03
1.175402e+03,4.146957e+03
1.186973e+03,4.111211e+03
1.198544e+03,4.075338e+03
1.210115e+03,4.028151e+03
1.221685e+03,4.023149e+03
1.233256e+03,3.967805e+03
1.244827e+03,3.929640e+03
1.256398e+03,3.864555e+03
1.267969e+03,3.807762e+03
1.279539e+03,3.782478e+03
1.291110e+03,3.771785e+03
1.302681e+03,3.740539e+03
1.314252e+03,3.721375e+03
1.325823e+03,3.697934e+03
1.337393e+03,3.657351e+03
1.348964e+03,3.629367e+03
1.360535e+03,3.602934e+03
1.372106e+03,3.549677e+03
1.383677e+03,3.527216e+03
1.395247e+03,3.489247e+03
1.406818e+03,3.464944e+03
1.418389e+03,3.410228e+03
1.429960e+03,3.399796e+03
1.441531e+03,3.382909e+03
1.453101e+03,3.386990e+03
1.464672e+03,3.351356e+03
1.476243e+03,3.313441e+03
1.487814e+03,3.277168e+03
1.499385e+03,3.253027e+03
1.510955e+03,3.241181e+03
1.522526e+03,3.204954e+03
1.534097e+03,3.168956e+03
1.545668e+03,3.140025e+03
1.557239e+03,3.167190e+03
1.568809e+03,3.423539e+03
1.580380e+03,3.246790e+03
1.591951e+03,3.088594e+03
1.603522e+03,3.038342e+03
1.615093e+03,3.008626e+03
1.626663e+03,3.015580e+03
1.638234e+03,2.951873e+03
1.649805e+03,2.914655e+03
1.661376e+03,2.883726e+03
1.672947e+03,2.899813e+03
1.684517e+03,2.855355e+03
1.696088e+03,2.807846e+03
1.707659e+03,2.788474e+03
1.719230e+03,2.758648e+03
1.730801e+03,2.743852e+03
1.742371e+03,2.706501e+03
1.753942e+03,2.673119e+03
1.765513e+03,2.658648e+03
1.777084e+03,2.626536e+03
1.788655e+03,2.628120e+03
1.800225e+03,2.615255e+03
1.811796e+03,2.572614e+03
1.823367e+03,2.542821e+03
1.834938e+03,2.508703e+03
1.846509e+03,2.509742e+03
1.858079e+03,2.490361e+03
1.869650e+03,2.449525e+03
1.881221e+03,2.418953e+03
1.892792e+03,2.395106e+03
1.904363e+03,2.365504e+03
1.915933e+03,2.331779e+03
1.927504e+03,2.345645e+03
1.939075e+03,2.311328e+03
1.950646e+03,2.271917e+03
1.962217e+03,2.267995e+03
1.973787e+03,2.244841e+03
1.985358e+03,2.203518e+03
1.996929e+03,2.180915e+03
2.008500e+03,2.137698e+03
2.020071e+03,2.151559e+03
2.031641e+03,2.099772e+03
2.043212e+03,2.096105e+03
2.054783e+03,2.055501e+03
2.066354e+03,2.030652e+03
2.077925e+03,1.994904e+03
2.089496e+03,1.983575e+03
2.101066e+03,1.967471e+03
2.112637e+03,1.926378e+03
2.124208e+03,1.903723e+03
2.135779e+03,1.901788e+03
2.147350e+03,1.865406e+03
2.158920e+03,1.839114e+03
2.170491e+03,1.843244e+03
2.182062e+03,1.773412e+03
2.193633e+03,1.772124e+03
2.205204e+03,1.765029e+03
2.216774e+03,1.750430e+03
2.228345e+03,1.701290e+03
2.239916e+03,1.693309e+03
2.251487e+03,1.669729e+03
2.263058e+03,1.650625e+03
2.274628e+03,1.608275e+03
2.286199e+03,1.602332e+03
2.297770e+03,1.592254e+03
2.309341e+03,1.560356e+03
2.320912e+03,1.540010e+03
2.332482e+03,1.507821e+03
2.344053e+03,1.507692e+03
2.355624e+03,1.468385e+03
2.367195e+03,1.444577e+03
2.378766e+03,1.430290e+03
2.390336e+03,1.416039e+03
2.401907e+03,1.401586e+03
2.413478e+03,1.354681e+03
2.425049e+03,1.348534e+03
2.436620e+03,1.339249e+03
2.448190e+03,1.306161e+03
2.459761e+03,1.300322e+03
2.471332e+03,1.286053e+03
2.482903e+03,1.277701e+03
2.494474e+03,1.238704e+03
2.506044e+03,1.241793e+03
2.517615e+03,1.235048e+03
2.529186e+03,1.210213e+03
2.540757e+03,1.192505e+03
2.552328e+03,1.173679e+03
2.563898e+03,1.176809e+03
2.575469e+03,1.149927e+03
2.587040e+03,1.127220e+03
2.598611e+03,1.115727e+03
2.610182e+03,1.115011e+03
2.621752e+03,1.078773e+03
2.633323e+03,1.085012e+03
2.644894e+03,1.069666e+03
2.656465e+03,1.072971e+03
2.668036e+03,1.063879e+03
2.679606e+03,1.050795e+03
2.691177e+03,1.026110e+03
2.702748e+03,1.012073e+03
2.714319e+03,1.000557e+03
2.725890e+03,9.803161e+02
2.737460e+03,9.793248e+02
2.749031e+03,9.725328e+02
2.760602e+03,9.726829e+02
2.772173e+03,9.560573e+02
2.783744e+03,9.274891e+02
2.795314e+03,9.418470e+02
2.806885e+03,9.324368e+02
2.818456e+03,9.138005e+02
2.830027e+03,9.013213e+02
2.841598e+03,8.943445e+02
2.853168e+03,8.991447e+02
2.864739e+03,8.938748e+02
2.876310e+03,8.739510e+02
2.887881e+03,8.552151e+02
2.899452e+03,8.682888e+02
2.911022e+03,8.835538e+02
2.922593e+03,8.538655e+02
2.934164e+03,8.478605e+02
2.945735e+03,8.327617e+02
2.957306e+03,8.477054e+02
2.968876e+03,7.983145e+02
2.980447e+03,7.995919e+02
2.992018e+03,7.978197e+02
3.003589e+03,7.635156e+02
3.015160e+03,8.176602e+02
3.026730e+03,7.936268e+02
3.038301e+03,7.856495e+02
3.049872e+03,7.573029e+02
3.061443e+03,7.830204e+02
3.073014e+03,7.568676e+02
3.084584e+03,7.428923e+02
3.096155e+03,7.578859e+02
3.107726e+03,7.282635e+02
3.119297e+03,7.927055e+02
3.130868e+03,7.900900e+02
3.142438e+03,7.903405e+02
3.154009e+03,7.493047e+02
3.165580e+03,7.785731e+02
3.177151e+03,7.847899e+02
3.188722e+03,7.839464e+02
3.200292e+03,8.166874e+02
3.211863e+03,0.000000e+00
3.223434e+03,0.000000e+00
3.235005e+03,0.000000e+00
3.246576e+03,0.000000e+00
3.258146e+03,0.000000e+00
3.269717e+03,0.000000e+00
3.281288e+03,0.000000e+00
3.292859e+03,0.000000e+00
3.304430e+03,0.000000e+00
3.316000e+03,0.000000e+00
3.327571e+03,0.000000e+00
3.339142e+03,0.000000e+00
3.350713e+03,0.000000e+00
3.362284e+03,0.000000e+00
3.373854e+03,0.000000e+00
3.385425e+03,0.000000e+00
3.396996e+03,0.000000e+00
3.408567e+03,0.000000e+00
3.420138e+03,0.000000e+00
3.431708e+03,0.000000e+00
3.443279e+03,0.000000e+00
3.454850e+03,0.000000e+00
3.466421e+03,0.000000e+00
3.477992e+03,0.000000e+00
3.489563e+03,0.000000e+00
3.500169e+03,0.000000e+00